timestampNs,vertAccel,smoothedVert,accelMag,zDiff,stdevZ,zThreshDiff,yaw,roll,pitch,speedMps,speedAgeMs,rawAccelX,rawAccelY,rawAccelZ,gravUnitX,gravUnitY,gravUnitZ,linAccelX,linAccelY,linAccelZ,gyroX,gyroY,gyroZ,label
36389231709036,0.2642779052257538,0.2642779052257538,10.14091535469456,0.0,0.0,0.2642779052257538,-0.12352235615253448,-0.1886499971151352,-0.0901818573474884,0.0,1791183591880,-0.65805006,8.352,5.71395,-1.134756,8.588272,4.581912,0.442612,-0.207037,1.062934,0.160875,-0.18865,0.12925,
36389241702199,0.2699706256389618,0.2671242654323578,10.14051245078542,0.0,0.0,0.2671242654323578,-0.1372777372598648,-0.20666250586509705,-0.13223418593406677,0.0,1791183591890,-0.51900005,8.34,5.7450004,-1.107714,8.595011,4.575889,0.50655,-0.252083,1.174303,0.2459875,-0.2066625,0.153725,
36389251695199,0.19099277257919312,0.24174710114796957,9.966125624114364,0.0,0.03596390012013182,0.24174710114796957,-0.11309976130723953,-0.17682500183582306,-0.17433491349220276,0.0,1791183591900,-0.21000001,8.356951,5.42595,-1.078444,8.606167,4.561894,0.678393,-0.272816,1.085347,0.3344,-0.176825,0.169675,
36389261688423,-0.009084314107894897,0.17903924733400345,9.752863134948822,0.0,0.11299060303294849,0.17903924733400345,-0.06855771690607071,-0.11618749797344208,-0.20149801671504974,0.0,1791183591910,0.08505,8.43795,4.8900003,-1.048663,8.622213,4.538473,1.01732,-0.21943,0.632321,0.3971,-0.1161875,0.16445,
36389271681577,-0.2127717137336731,0.10067705512046814,9.579861795708474,0.0,0.18648333376750773,0.10067705512046814,-0.021224334836006165,-0.04702499881386757,-0.20228460431098938,0.0,1791183591923,0.21495001,8.512051,4.3900504,-1.021881,8.641511,4.507779,1.17489,-0.159719,0.109954,0.4087875,-0.047025,0.136675,
36389281674588,-0.35173851251602173,0.025274460514386494,9.428908876141596,0.0,0.2395992164236948,0.022526228427886964,0.024947963654994965,0.0147124994546175,-0.18288379907608032,0.0,1791183591929,0.22005,8.52,4.03305,-0.999603,8.661265,4.474743,1.217256,-0.112436,-0.280782,0.375925,0.014712499,0.1101375,
36389291667817,-0.4979718327522278,-0.049475009952272685,9.348926296481553,0.0,0.28763096573238756,0.1761147201061249,0.060039594769477844,0.05829999968409538,-0.14874421060085297,0.0,1791183591939,0.19800001,8.497951,3.8920503,-0.981767,8.678956,4.444306,1.189843,-0.173222,-0.496948,0.308825,0.0583,0.0867625,
36389301660986,-0.5561124682426453,-0.11280469223856926,9.296832831707647,0.0,0.3169616167637818,0.3255357682704926,0.07470996677875519,0.07315000146627426,-0.114874929189682,0.0,1791183591950,0.054,8.457001,3.8610003,-0.966939,8.693452,4.419157,1.08643,-0.223631,-0.555596,0.2385625,0.07315,0.073975,
36389311653973,-0.48219621181488037,-0.15384819441371494,9.53283085334562,0.0,0.32059082698282243,0.42015814781188965,0.05760335177183151,0.04661250114440918,-0.08811375498771667,0.0,1791183591960,-0.076050006,8.5990505,4.1140504,-0.953211,8.704657,4.400042,0.931444,-0.215682,-0.445501,0.1799875,0.0466125,0.075075,
36389321647111,-0.10530444234609604,-0.14899381920695304,9.88863691345417,0.6629425987601281,0.30448762723435774,0.3986646935343742,0.03503464162349701,0.01993750035762787,-0.0760536789894104,0.0,1791183591970,-0.29895002,8.77305,4.5529504,-0.939504,8.713107,4.386238,0.790845,-0.003867,-0.058202,0.15455,0.0199375,0.071775,
36389331640113,0.04613218456506729,-0.13125509159131485,9.82724968179662,0.5862148195505142,0.2956871844771846,0.31909055411815646,0.06692323088645935,0.06146249920129776,-0.0791403129696846,0.0,1791183591980,-0.40005,8.685,4.5810003,-0.930226,8.719845,4.374815,0.534964,-0.02497,0.266861,0.1640375,0.0614625,0.0622875,
36389341633341,0.09924706816673279,-0.1120465782781442,9.939689551026825,0.44139387508233385,0.2901786322757628,0.1996467739343643,0.10491899400949478,0.10188750177621841,-0.08128692209720612,0.0,1791183591992,-0.57405,8.674951,4.8180003,-0.923725,8.726584,4.362739,0.439877,-0.005373,0.326821,0.1683,0.1018875,0.0675125,
36389351626257,0.08490023016929626,-0.09689682378218724,9.790046186644025,0.25048348158597944,0.28369105800745775,0.07144423425197602,0.1979256123304367,0.19236250221729279,-0.09060873091220856,0.0,1791183592000,-0.46695003,8.61495,4.6270504,-0.919654,8.73303,4.350682,0.356798,-0.095616,0.458588,0.1832875,0.1923625,0.09845,
36389361619490,-0.19844990968704224,-0.10415061563253403,9.492848325968692,0.11537202894687652,0.27461978877609317,0.014694973826408386,0.24090531468391418,0.2264624983072281,-0.0987657681107521,0.0,1791183592010,0.009000001,8.578951,4.06395,-0.913129,8.741769,4.334478,0.687855,-0.145055,-0.011229,0.19607499,0.2264625,0.12925,
36389371612644,-0.4458054304122925,-0.12692760328451794,9.435543539306481,0.060268943011760716,0.2786599531554156,0.08279517143964768,0.17378926277160645,0.15193749964237213,-0.09065093100070953,0.0,1791183592019,0.23400001,8.6320505,3.8029501,-0.899768,8.7524,4.315774,1.043201,-0.17484,-0.440242,0.1799875,0.1519375,0.124025,
36389381605655,-0.37767136096954346,-0.14259908813983202,9.496749036865987,0.008558839559555054,0.2765539557895481,0.16755588054656984,0.12004156410694122,0.09982500225305557,-0.06676556915044785,0.0,1791183592030,0.093,8.60295,4.02105,-0.884288,8.761642,4.300197,1.078,-0.112256,-0.4103,0.13213749,0.099825,0.09735,
36389391598800,-0.3840538561344147,-0.15680230978657217,9.4501342661575,0.06131970286369326,0.27424596268199763,0.2642160654067993,0.12812787294387817,0.11261250078678131,-0.047880955040454865,0.0,1791183592040,0.08505,8.472,4.1860504,-0.87213,8.767453,4.290823,0.915006,-0.254537,-0.171082,0.0928125,0.1126125,0.0814,
36389401592005,-0.3818380832672119,-0.16930429720216328,9.515729729421132,0.06259441971778867,0.2714582146833512,0.357563728094101,0.11844564974308014,0.11041250079870224,-0.04084717854857445,0.0,1791183592050,0.09,8.472,4.3320003,-0.861458,8.771529,4.284646,0.985737,-0.308892,-0.042801,0.081125,0.1104125,0.0611875,
36389411584990,-0.234988734126091,-0.1727613728297384,9.66258983573114,0.03379320055246354,0.2646248079760948,0.3648714929819107,0.09373507648706436,0.0966624990105629,-0.042570821940898895,0.0,1791183592060,-0.057000004,8.60295,4.39905,-0.853037,8.774984,4.279251,0.879155,-0.238126,0.125399,0.0906125,0.0966625,0.0345125,
36389421578151,-0.14143604040145874,-0.17119510620832443,9.63182314925871,0.015092939138412476,0.25801469953865713,0.303997614979744,0.09051481634378433,0.10518749803304672,-0.04661237448453903,0.0,1791183592073,-0.21300001,8.70405,4.119,-0.848536,8.778983,4.271936,0.702271,-0.105655,0.032157,0.104499996,0.1051875,0.0122375,
36389431571149,-0.19039589166641235,-0.19392879605293273,9.638299711788276,0.06689574718475344,0.23788938784193345,0.26654252111911775,0.049817997962236404,0.06366249918937683,-0.0424458310008049,0.0,1791183592080,-0.48795003,8.77095,3.966,-0.846002,8.78393,4.262261,0.493835,-0.038776,-0.259836,0.097075,0.0636625,0.0026125,
36389441564285,-0.1430494636297226,-0.21457980051636696,9.667572300227816,0.1468974083662033,0.21338743757201106,0.21834164261817932,-0.019349034875631332,-0.016224998980760574,-0.03514895215630531,0.0,1791183592089,-0.87105006,8.72295,4.07595,-0.843495,8.788331,4.253676,0.182476,-0.019235,-0.253645,0.080025,-0.016224999,0.0048125,
36389451557528,-0.10206970572471619,-0.22923292443156243,9.727395861997449,0.1476929932832718,0.19423685268817675,0.16238796710968018,-0.06481443345546722,-0.08428750187158585,-0.029078202322125435,0.0,1791183592100,-0.94095004,8.649,4.3510504,-0.839447,8.790941,4.249082,-0.161548,-0.117613,-0.023997,0.0598125,-0.0842875,0.0367125,
36389461550514,-0.012798070907592773,-0.2294186122715473,9.894007741978179,0.035154663026332855,0.19402796762801897,0.11794983446598054,-0.11712650209665298,-0.16307500004768372,-0.03308606892824173,0.0,1791183592110,-0.41205,8.75205,4.596,-0.827069,8.792768,4.247725,0.163656,-0.095499,0.200021,0.0609125,-0.163075,0.0792,
36389471543669,0.20641615986824036,-0.20845921859145164,10.087427824205072,0.11917648613452912,0.21608169174454103,0.04837939441204071,-0.16280736029148102,-0.21312500536441803,-0.03751080483198166,0.0,1791183592120,-0.072000004,8.812051,4.9090505,-0.806298,8.794464,4.248211,0.552294,0.017726,0.5443,0.0715,-0.213125,0.0792,
36389481536652,0.1927657127380371,-0.1812340073287487,9.978738550018402,0.2924689918756485,0.23015801061776134,0.028252926468849183,-0.10545426607131958,-0.13433749973773956,-0.04582870751619339,0.0,1791183592129,0.078,8.721001,4.84905,-0.786485,8.796353,4.248014,0.831756,-0.020075,0.640265,0.095975,-0.1343375,0.0526625,
36389491529818,0.00436285138130188,-0.15611727312207221,9.711023439248974,0.41529911756515503,0.22146789092274508,0.057735389471054076,-0.05504752695560455,-0.05871250107884407,-0.05065147951245308,0.0,1791183592140,-0.094950005,8.553,4.59795,-0.773141,8.798918,4.245154,0.777711,-0.175868,0.516232,0.114125,-0.0587125,0.0154,
36389501523056,-0.17401501536369324,-0.13701240047812463,9.608493546099123,0.40821782052516936,0.2017405244464224,0.043346327543258664,-0.010473620146512985,-0.0034374999813735485,-0.05007735267281532,0.0,1791183592152,-0.21300001,8.60595,4.26795,-0.765703,8.802284,4.239517,0.605072,-0.239089,0.20344,0.1150875,-0.0034375,0.0037125,
36389511516056,-0.2527559995651245,-0.12554038986563681,9.504326916567088,0.2993523567914963,0.1878293588139423,0.004645258188247681,0.006001890636980534,0.015812499448657036,-0.047001007944345474,0.0,1791183592161,-0.25800002,8.680051,3.86295,-0.760968,8.806715,4.231158,0.530905,-0.166906,-0.142541,0.1087625,0.0158125,5.5E-4,
36389521509208,-0.3431355357170105,-0.13743194453418256,9.465268376390963,0.1519869238138199,0.1936113804927929,0.11455559730529785,-0.05336304381489754,-0.05128749832510948,-0.041847627609968185,0.0,1791183592169,-0.42105,8.72595,3.6430502,-0.755226,8.812389,4.220359,0.441367,-0.098361,-0.512421,0.097075,-0.0512875,5.5E-4,
36389531502208,-0.31006819009780884,-0.15524196326732637,9.514257009378271,0.003219264745712269,0.19228505942627738,0.21512237787246705,-0.1216639056801796,-0.13323749601840973,-0.02997318096458912,0.0,1791183592180,-0.53595,8.7640505,3.66405,-0.74733,8.817482,4.211117,0.263482,-0.057963,-0.553457,0.0683375,-0.1332375,0.007975,
36389541495361,-0.3113802671432495,-0.17577333003282547,9.550285234024166,0.11588303446769715,0.1858298474361904,0.27827100157737733,-0.13715487718582153,-0.16197499632835388,-0.01386029552668333,0.0,1791183592191,-0.462,8.814,3.6480002,-0.737073,8.821033,4.205487,0.212524,-0.056726,-0.569375,0.0279125,-0.161975,0.025024999,
36389551488581,-0.2878791391849518,-0.19441229850053787,9.594977340363384,0.18309399187564848,0.1772460759099552,0.301043826341629,-0.14950330555438995,-0.18645000457763672,0.0071058995090425014,0.0,1791183592201,-0.38295,8.78295,3.8440502,-0.723748,8.822625,4.20446,0.290178,-0.055924,-0.503704,-0.0232375,-0.18645,0.038775,
36389561481571,-0.0961977168917656,-0.18929968886077403,9.801092338399776,0.22135277539491655,0.17852597215804109,0.26973216980695724,-0.1374058574438095,-0.18438750505447388,0.02611389197409153,0.0,1791183592209,-0.25800002,8.82405,4.25805,-0.707902,8.82121,4.210125,0.38686,-0.001836,-0.155027,-0.0699875,-0.1843875,0.054725,
36389571474725,0.10048580169677734,-0.16198512725532055,9.974997596860241,0.20926082879304886,0.1789817287147346,0.18100790232419967,-0.09900335967540741,-0.1480875015258789,0.03526435047388077,0.0,1791183592221,-0.081,8.84805,4.605,-0.69092,8.817198,4.221335,0.515924,0.035694,0.24317,-0.0924,-0.1480875,0.06435,
36389581467727,0.17757834494113922,-0.13422264195978642,9.994947418246833,0.14121398478746414,0.18628699266385884,0.08347859531641007,-0.044570427387952805,-0.08428750187158585,0.0345628522336483,0.0,1791183592229,0.0019500001,8.814,4.7130003,-0.675072,8.812053,4.234622,0.665276,0.02408,0.466909,-0.089237496,-0.0842875,0.058025,
36389591460970,0.1794891506433487,-0.10604549162089824,9.959449699792218,0.028651039302349086,0.18896789276657414,0.014695288240909576,-0.006457630544900894,-0.035337500274181366,0.02760835736989975,0.0,1791183592240,-0.060000002,8.781,4.6990504,-0.662201,8.807237,4.246654,0.6548,0.016924,0.481214,-0.0710875,-0.0353375,0.0473,
36389601454124,0.14357990026474,-0.07977459244430066,10.022057449273097,0.10563235431909561,0.18528698952286396,0.10098709613084793,0.014508242718875408,-0.008662499487400055,0.020608428865671158,0.0,1791183592252,-0.079050004,8.82405,4.7509503,-0.65207,8.803102,4.256786,0.558477,-0.01964,0.456716,-0.0540375,-0.0086624995,0.0430375,
36389611447109,0.2829287052154541,-0.0538787204772234,10.144459348087704,0.2913679778575897,0.1975696963587102,0.17681238055229187,0.02177966572344303,0.0019249999895691872,0.012034457176923752,0.0,1791183592260,0.010950001,8.93595,4.8019505,-0.642616,8.799745,4.265156,0.601695,0.103425,0.527354,-0.033825,0.001925,0.040975,
36389621440268,0.33625560998916626,-0.029994137957692145,10.181847343719236,0.43908872008323674,0.21375274785122134,0.22396634221076966,0.01787407137453556,0.005087499972432852,0.0017627604538574815,0.0,1791183592270,0.0019500001,8.971951,4.81395,-0.633399,8.79742,4.271323,0.673881,0.158423,0.54513,-0.0083875,0.0050875,0.0292875,
36389631433256,0.3231137990951538,-0.004318653419613838,10.111860473603302,0.53134443461895,0.22355945817282455,0.2530734330415726,0.0015530050732195377,-0.004537499975413084,-0.011789316311478615,0.0,1791183592279,-0.069000006,8.90295,4.794,-0.625696,8.796326,4.27471,0.579987,0.137969,0.541742,0.0246125,-0.0045375,0.0165,
36389641426410,0.2682071924209595,0.016244179382920266,10.033398917636886,0.5718608677387238,0.22870768721916682,0.2708170413970947,-0.026906151324510574,-0.03217500075697899,-0.02741379663348198,0.0,1791183592290,-0.24195,8.875951,4.67205,-0.618384,8.79665,4.275108,0.450571,0.080183,0.515008,0.0609125,-0.032175,0.0133375,
36389651419400,0.12006616592407227,0.02735097296535969,9.887955056062772,0.5358464643359184,0.22808526213559205,0.2661142945289612,-0.024524211883544922,-0.031075000762939453,-0.03748798742890358,0.0,1791183592300,-0.26805001,8.85495,4.392,-0.611958,8.79877,4.271672,0.38429,0.051728,0.223958,0.0831875,-0.031075,0.0196625,
36389661412629,0.015425465069711208,0.028762149764224886,9.815697701267656,0.39362154882401224,0.2279197424187666,0.2126136464998126,-0.0530332587659359,-0.0672374963760376,-0.03987210988998413,0.0,1791183592310,-0.28695002,8.83605,4.2649503,-0.604137,8.80211,4.265901,0.287884,0.017263,0.040587,0.08745,-0.0672375,0.0292875,
36389671405778,-0.013593010604381561,0.01776169124059379,9.7551209545234,0.22612251769751313,0.22436142607787427,0.14264392238110304,-0.06133067607879639,-0.08428750187158585,-0.036983419209718704,0.0,1791183592319,-0.20295002,8.826,4.15005,-0.593813,8.805622,4.260096,0.337414,0.025722,-0.037405,0.078925,-0.0842875,0.0441375,
36389681398766,-0.09630778431892395,0.003308016387745738,9.68739202471835,0.04406431745737791,0.22191983390551842,0.05875960569828749,-0.061169616878032684,-0.089649997651577,-0.03190131112933159,0.0,1791183592330,-0.109950006,8.805,4.038,-0.581342,8.809184,4.254446,0.45423,6.12E-4,-0.161042,0.0661375,-0.08965,0.0537625,
36389691391924,-0.12136059254407883,-0.0029781558085232975,9.665444600024857,0.12014104742556811,0.22357538815481984,0.019153951294720174,-0.05117535963654518,-0.08112499862909317,-0.02506176196038723,0.0,1791183592340,-0.069000006,8.79,4.01895,-0.568037,8.812459,4.24946,0.493598,0.002125,-0.218305,0.0501875,-0.081125,0.056925,
36389701385139,-0.16962681710720062,-0.0027587458956986667,9.640413956903219,0.2539049284532666,0.22340952194831767,0.07709254790097475,-0.0319770872592926,-0.06187500059604645,-0.017697401344776154,0.0,1791183592350,0.0139500005,8.79,3.9589503,-0.555028,8.815058,4.245789,0.518896,-0.036385,-0.248153,0.0331375,-0.061875,0.0589875,
36389711378136,-0.17306330800056458,0.0012258886825293302,9.645130572947162,0.3387566447257996,0.21959323312895496,0.1147903025150299,-0.014149647206068039,-0.04166249930858612,-0.009638702496886253,0.0,1791183592360,0.064050004,8.7949505,3.9589503,-0.542415,8.817071,4.243237,0.59008,-0.024033,-0.274331,0.015125,-0.0416625,0.055825,
36389721371283,-0.17044606804847717,0.009860362065955997,9.638156157597988,0.3992343470454216,0.20902382020020374,0.14616091400384904,-0.006625698879361153,-0.029975000768899918,-0.0035728688817471266,0.0,1791183592369,0.057000004,8.78505,3.9640503,-0.530628,8.818438,4.241885,0.626177,-0.015823,-0.282556,0.0023375,-0.029975,0.0473,
36389731364285,-0.18760895729064941,0.015983323706313966,9.622876028874394,0.43523818999528885,0.20120998839947213,0.16442114859819412,0.004639975726604462,-0.016224998980760574,0.002713717520236969,0.0,1791183592380,0.0139500005,8.79,3.9160502,-0.520408,8.819143,4.241688,0.544131,-0.042865,-0.27757,-0.01155,-0.016224999,0.0430375,
36389741357500,-0.21015876531600952,0.021044398797675966,9.646907424145299,0.4482950776815414,0.19405800973242077,0.18218078315258027,0.005667834542691708,-0.015124999918043613,0.010661309584975243,0.0,1791183592390,0.009000001,8.806951,3.93705,-0.510934,8.819346,4.242414,0.522686,-0.03828,-0.34294,-0.0295625,-0.015125,0.040975,
36389751350434,-0.1163732260465622,0.029619694454595447,9.75126213027058,0.38414371144026516,0.1837320549349272,0.1715300649404526,0.002687862142920494,-0.0193875003606081,0.018095172941684723,0.0,1791183592399,0.078,8.85495,4.083,-0.501336,8.818603,4.245105,0.529848,0.019924,-0.247468,-0.0466125,-0.0193875,0.040975,
36389761343668,-0.04039556905627251,0.0324098018463701,9.807512392730935,0.28764043953269725,0.18221769704856694,0.14499651715159417,-0.00459866039454937,-0.023649999871850014,0.020910605788230896,0.0,1791183592409,0.07395,8.82405,4.27995,-0.491619,8.816947,4.249677,0.570408,0.028762,-0.086841,-0.051975,-0.02365,0.032449998,
36389771336822,0.037788353860378265,0.029274929454550146,9.882538542156906,0.16210923846811057,0.1815576796670333,0.10334963276982308,-0.010652704164385796,-0.025712499395012856,0.017211973667144775,0.0,1791183592420,0.109050006,8.805,4.48605,-0.482541,8.814622,4.255541,0.599638,0.016722,0.120379,-0.04235,-0.0257125,0.023924999,
36389781329829,0.07049581408500671,0.023920802911743522,9.870338182896877,0.032574727199971676,0.17866109618290477,0.05172867849469185,-0.010716013610363007,-0.0193875003606081,0.007604188751429319,0.0,1791183592429,0.030000001,8.79705,4.4760003,-0.474568,8.812464,4.260901,0.553358,-0.012244,0.249094,-0.018975,-0.0193875,0.0133375,
36389791323063,0.06018664687871933,0.017955677723512052,9.875536941636556,0.07943295184522867,0.17532794871868163,0.0023404039442539216,-0.012979043647646904,-0.018287500366568565,-4.40998119302094E-4,0.0,1791183592440,-0.060000002,8.8279505,4.42605,-0.468398,8.811267,4.264054,0.427477,-0.003864,0.193268,1.375E-4,-0.0182875,0.007975,
36389801315988,0.06443677842617035,0.013998521631583572,9.850069651809665,0.15329270735383033,0.17332969419357117,0.03850240483880043,-0.017715107649564743,-0.02474999986588955,-0.0033985814079642296,0.0,1791183592450,-0.064050004,8.814,4.3969502,-0.462563,8.810731,4.265805,0.404883,0.034978,0.119692,0.0066,-0.02475,0.0111375,
36389811309217,0.037574440240859985,0.0017308083828538657,9.8286755143923,0.20025732070207597,0.1621860200993744,0.05409640669822693,-0.02638457529246807,-0.03423750028014183,-0.004769417457282543,0.0,1791183592459,-0.064050004,8.78505,4.407,-0.456147,8.810317,4.267345,0.422409,-5.2E-4,0.132516,0.0097624995,-0.0342375,0.0111375,
36389821302383,-0.006894361227750778,-0.015426690177991986,9.778357471753923,0.20958101227879525,0.14289262714311998,0.04515986368060112,-0.027640976011753082,-0.0364375002682209,-0.0071996902115643024,0.0,1791183592469,0.0019500001,8.75205,4.36095,-0.449437,8.810054,4.268602,0.427671,-0.052929,0.138442,0.015125,-0.0364375,0.0133375,
36389831295384,-0.04624549672007561,-0.033894654968753456,9.76450578525884,0.20399238467216493,0.1199760141291532,0.021811601519584656,-0.02725907601416111,-0.0364375002682209,-0.007713563274592161,0.0,1791183592480,0.0139500005,8.745001,4.3440003,-0.442153,8.810063,4.269346,0.458694,-0.067304,0.080237,0.016224999,-0.0364375,0.0143,
36389841288549,-0.014711849391460419,-0.04804060705937445,9.826690629513518,0.17836196720600128,0.09823064031882095,0.006831902265548706,-0.030938785523176193,-0.03959999978542328,-0.007133543025702238,0.0,1791183592490,0.028050002,8.793,4.38705,-0.434957,8.810033,4.270145,0.446709,-0.040937,0.096198,0.015125,-0.0396,0.0122375,
36389851281778,0.04760655760765076,-0.051663587475195526,9.856339245430727,0.14846237525343897,0.09316950874427103,0.0034658581018447874,-0.027203015983104706,-0.03423750028014183,-0.008408195339143276,0.0,1791183592500,0.057000004,8.809051,4.4209504,-0.427977,8.809998,4.270922,0.461277,0.009375,0.136122,0.0182875,-0.0342375,0.0100375,
36389861274783,0.0695037990808487,-0.048959670774638656,9.873664570982264,0.11320136263966561,0.09582419278970042,0.00985172986984253,-0.03405161574482918,-0.03959999978542328,-0.010076573118567467,0.0,1791183592509,0.093,8.821051,4.43505,-0.420948,8.81012,4.271373,0.497343,0.026013,0.154825,0.02255,-0.0396,0.005775,
36389871267922,0.11593960225582123,-0.04248304013162851,9.949168230912672,0.08614720106124879,0.10216348495930669,0.03441852256655693,-0.04516247659921646,-0.048124998807907104,-0.012097161263227463,0.0,1791183592521,0.14805001,8.842951,4.557,-0.413764,8.81028,4.271738,0.550015,0.0474,0.221497,0.0279125,-0.048125,-0.00165,
36389881260924,0.17519965767860413,-0.02890766803175211,10.012378321174822,0.07636714950203896,0.11170281833210854,0.07870755344629288,-0.05544966086745262,-0.05444999784231186,-0.016801437363028526,0.0,1791183592530,0.14805001,8.839951,4.6990504,-0.406578,8.810353,4.272282,0.58353,0.047327,0.359817,0.0396,-0.054449998,-0.0111375,
36389891254083,0.21712523698806763,-0.011983376555144786,10.076556539119348,0.08657256588339804,0.12161546092677264,0.12507497072219848,-0.05287601798772812,-0.04702499881386757,-0.02530934102833271,0.0,1791183592539,0.09705,8.86905,4.782,-0.400809,8.810692,4.272128,0.522694,0.035017,0.474893,0.0598125,-0.047025,-0.0187,
36389901247069,0.24318978190422058,0.008657453395426274,10.041585775086544,0.11009520888328553,0.1279741020591077,0.16419161558151246,-0.04726087674498558,-0.03739999979734421,-0.03813416510820389,0.0,1791183592550,0.040050004,8.814,4.8109503,-0.396433,8.811855,4.270139,0.465646,0.026671,0.546314,0.08965,-0.0374,-0.0229625,
36389911240298,0.2095637321472168,0.027788805402815343,9.986642645663148,0.14704373851418495,0.12797815069058452,0.19220360219478608,-0.03751783072948456,-0.025712499395012856,-0.05202821269631386,0.0,1791183592560,-0.03795,8.821051,4.68195,-0.393122,8.81425,4.265497,0.397691,3.34E-4,0.517436,0.12155,-0.0257125,-0.0218625,
36389921233461,0.0756738930940628,0.04009480345994234,9.802579499695977,0.1623388588428497,0.11990314964398294,0.18415046036243438,-0.028548303991556168,-0.016224998980760574,-0.06268435716629028,0.0,1791183592569,-0.13605,8.77305,4.3710003,-0.390953,8.818487,4.256925,0.306937,-0.030238,0.26504,0.146025,-0.016224999,-0.0187,
36389931226438,-0.04619734734296799,0.04716538395732641,9.701406285205627,0.13303915709257128,0.11003017230509482,0.13987105935811997,-0.03290633112192154,-0.02474999986588955,-0.06743308901786804,0.0,1791183592579,-0.14295001,8.781,4.122,-0.388773,8.824395,4.244873,0.230536,-0.03854,-0.005422,0.1566125,-0.02475,-0.010175,
36389941219589,-0.12895140051841736,0.05122575219720602,9.636844570832057,0.06718987375497819,0.10163770179410252,0.07065573185682297,-0.03496994450688362,-0.03217500075697899,-0.06303199380636215,0.0,1791183592589,-0.112050004,8.793,3.9420002,-0.385165,8.830904,4.231641,0.286784,-0.040261,-0.188514,0.146025,-0.032175,-5.5E-4,
36389951212807,-0.21173103153705597,0.04645786192268133,9.55809149047721,0.03018016070127487,0.11117703125417865,0.02032843083143234,-0.0314791239798069,-0.029975000768899918,-0.05187419429421425,0.0,1791183592599,-0.11895001,8.769,3.801,-0.381242,8.837204,4.218825,0.278072,-0.041772,-0.379206,0.12045,-0.029975,5.5E-4,
36389961205807,-0.26991960406303406,0.034981660172343255,9.541120273806714,0.15064362064003944,0.12983138371524233,0.11622509807348251,-0.028759831562638283,-0.031075000762939453,-0.03594599664211273,0.0,1791183592609,-0.10305001,8.75895,3.7819502,-0.377166,8.842312,4.208477,0.262025,-0.082793,-0.431107,0.0831875,-0.031075,0.005775,
36389971198959,-0.2228308916091919,0.021950697898864745,9.614092737797126,0.2546336084604263,0.1414544235291851,0.17592605501413344,-0.030605880543589592,-0.03739999979734421,-0.018758870661258698,0.0,1791183592620,-0.097950004,8.766001,3.9469502,-0.372161,8.845559,4.202093,0.290539,-0.069281,-0.348109,0.0427625,-0.0374,0.0111375,
36389981191952,-0.13410407304763794,0.011720703542232513,9.713417726933557,0.31858237087726593,0.14492937698382383,0.19350740015506745,-0.03280666843056679,-0.042762499302625656,-0.009768732823431492,0.0,1791183592630,-0.19095,8.7640505,4.1839504,-0.36677,8.846884,4.199783,0.242052,-0.077788,-0.127926,0.02145,-0.0427625,0.0154,
36389991185113,-0.018277451395988464,0.007797498628497124,9.852485611062866,0.3355642259120941,0.14462599993754327,0.17137261033058165,-0.033344365656375885,-0.04702499881386757,-0.00867922231554985,0.0,1791183592639,-0.20295002,8.812051,4.40205,-0.361405,8.847004,4.19999,0.152891,-0.061149,0.099315,0.0182875,-0.047025,0.022824999,
36390001178322,0.07569348812103271,0.008360334113240242,9.953659525784257,0.30609130859375,0.14486702848754077,0.11388770639896392,-0.03157197684049606,-0.04922499880194664,-0.013554377481341362,0.0,1791183592650,-0.15300001,8.82405,4.60305,-0.355136,8.846699,4.201168,0.16817,-0.056056,0.308826,0.028875,-0.049225,0.032449998,
36390011171317,0.167860746383667,0.014874649420380592,10.012009836489801,0.21048209667205808,0.1489072379529253,0.026331636309623718,-0.02963719144463539,-0.048124998807907104,-0.024648517370224,0.0,1791183592659,-0.072000004,8.833051,4.7130003,-0.347985,8.846751,4.201654,0.213691,-0.022589,0.456781,0.054449998,-0.048125,0.0367125,
36390021164478,0.19463872909545898,0.024951303936541082,10.013474569727917,0.08270877152681351,0.15383071303992754,0.05716228783130646,-0.024404851719737053,-0.04166249930858612,-0.038320377469062805,0.0,1791183592669,-0.033,8.821051,4.7389503,-0.34006,8.847785,4.20013,0.294351,-0.023623,0.527738,0.08635,-0.0416625,0.0378125,
36390031157495,0.19304805994033813,0.03691598176956177,9.997664877913472,0.051936982572078697,0.15709904998594884,0.12259271442890167,-0.02015933021903038,-0.033137500286102295,-0.05314086005091667,0.0,1791183592679,-0.012,8.839951,4.66995,-0.33269,8.850177,4.195678,0.306135,-0.02362,0.525007,0.12155,-0.0331375,0.032449998,
36390041150656,0.14286354184150696,0.044794751331210136,9.933308173459576,0.1751493439078331,0.1582593097527677,0.15482091307640075,-0.023441458120942116,-0.03217500075697899,-0.06593144685029984,0.0,1791183592691,0.009000001,8.851951,4.50705,-0.325788,8.854275,4.187564,0.335146,-0.020536,0.403834,0.15235,-0.032175,0.025024999,
36390051143884,0.07580922544002533,0.04620488472282887,9.829573921026885,0.2710691586136818,0.15840366225162164,0.15484406054019928,-0.02327878773212433,-0.02681249938905239,-0.07362227886915207,0.0,1791183592699,0.0019500001,8.857051,4.263,-0.319816,8.86003,4.175834,0.321992,4.4E-5,0.202479,0.1716,-0.0268125,0.0154,
36390061136885,-0.04813798516988754,0.04032279551029205,9.715381603695173,0.2875703692436218,0.15960892245011918,0.11164431422948837,-0.01860770769417286,-0.018287500366568565,-0.0721982941031456,0.0,1791183592709,-0.064050004,8.84805,4.01205,-0.315209,8.866739,4.161922,0.276683,-0.025817,-0.037393,0.1694,-0.0182875,0.007975,
36390071130054,-0.13757281005382538,0.027647174894809723,9.63774836466024,0.23870940655469897,0.16312812148287673,0.0452020063996315,-0.015463640913367271,-0.015124999918043613,-0.06249026581645012,0.0,1791183592719,-0.12195001,8.8279505,3.86505,-0.31164,8.873426,4.147916,0.244384,-0.037293,-0.226894,0.147125,-0.015125,0.006875,
36390081123054,-0.21919724345207214,0.007927329838275909,9.567112549900605,0.1341255560517311,0.167868797917141,0.037247054278850555,-0.016884490847587585,-0.020487500354647636,-0.047158900648355484,0.0,1791183592730,-0.13395001,8.7949505,3.76305,-0.30836,8.879051,4.136103,0.150123,-0.090802,-0.313243,0.110825,-0.0204875,0.0122375,
36390091116208,-0.23079350590705872,-0.014468607306480408,9.57310414749272,0.0019092425704002325,0.1683435444758989,0.11197846382856369,-0.029768839478492737,-0.03849999979138374,-0.03152430057525635,0.0,1791183592739,-0.12900001,8.805,3.7549503,-0.303904,8.88346,4.12696,0.179187,-0.076057,-0.371138,0.0735625,-0.0385,0.0176,
36390101109433,-0.2066745012998581,-0.03696182146668434,9.644763188983411,0.14214357286691667,0.1623618406252195,0.16847520917654038,-0.04148001968860626,-0.05555000156164169,-0.0169194508343935,0.0,1791183592755,-0.097950004,8.805,3.93495,-0.298209,8.886207,4.121453,0.163915,-0.08838,-0.289016,0.0385,-0.05555,0.023924999,
36390111102457,-0.11059612780809402,-0.052969814464449885,9.728427756156206,0.23812912553548815,0.152766061596415,0.18096683770418168,-0.0443962924182415,-0.06091250106692314,-0.008492727763950825,0.0,1791183592760,-0.031050002,8.818951,4.1070004,-0.291316,8.887284,4.119629,0.233636,-0.065516,-0.105233,0.0182875,-0.0609125,0.0270875,
36390121095613,-0.03033413179218769,-0.05827021570876241,9.811868926625403,0.2821118164807558,0.15002511074520464,0.15951910205185413,-0.040794845670461655,-0.05664999783039093,-0.00578272296115756,0.0,1791183592769,0.0,8.833051,4.2720003,-0.284106,8.887267,4.120166,0.25755,-0.058317,0.071399,0.0119624995,-0.056649998,0.0259875,
36390131088851,0.03038809448480606,-0.054440943617373706,9.818470317521584,0.26442294754087925,0.15125672752030267,0.1096020344644785,-0.024306807667016983,-0.0364375002682209,-0.007443011738359928,0.0,1791183592779,0.028050002,8.812051,4.33005,-0.277555,8.886795,4.121632,0.298884,-0.050662,0.201615,0.016224999,-0.0364375,0.0218625,
36390141081851,0.010983787477016449,-0.04744418421760201,9.780670093694887,0.21609063632786274,0.15088430117348636,0.06124657578766346,-0.00842842273414135,-0.016224998980760574,-0.0104077672585845,0.0,1791183592789,0.028050002,8.77095,4.32795,-0.272343,8.886449,4.122726,0.284095,-0.076652,0.210098,0.02365,-0.016224999,0.0165,
36390151075021,0.010786116123199463,-0.03631832683458924,9.749375898447987,0.12939876653254032,0.1465002307912343,0.01775445230305195,0.002396920695900917,-0.0034374999813735485,-0.015287247486412525,0.0,1791183592799,0.045,8.76105,4.2769504,-0.267591,8.886497,4.122932,0.33441,-0.074305,0.207498,0.0353375,-0.0034375,0.0154,
36390161068024,-0.10050751268863678,-0.02784772226586938,9.709138749278832,0.060938735678791996,0.13736120712565664,0.015736729279160498,0.00849443394690752,0.005087499972432852,-0.020107019692659378,0.0,1791183592809,-0.0049500004,8.75895,4.18905,-0.263834,8.887209,4.12164,0.273191,-0.154026,0.110627,0.047025,0.0050875,0.0122375,
36390171061180,-0.08995451033115387,-0.021203903201967477,9.702628472540324,0.00958624929189682,0.1308277559659824,0.027660804986953735,-0.0051869116723537445,-0.00976249948143959,-0.02367265149950981,0.0,1791183592819,-0.055050004,8.754001,4.1839504,-0.260348,8.888574,4.11892,0.217034,-0.124266,0.067857,0.05555,-0.0097624995,0.0122375,
36390181054413,-0.11369931697845459,-0.02018366539850831,9.66753212934372,0.05550017654895782,0.1300204157309311,0.05647828727960587,-0.02575904317200184,-0.033137500286102295,-0.02774311974644661,0.0,1791183592831,-0.021000002,8.7300005,4.1530504,-0.256015,8.890326,4.115406,0.215094,-0.149961,0.066583,0.065175,-0.0331375,0.0143,
36390191047355,-0.15849247574806213,-0.027194416616111994,9.640346139402627,0.0781016692519188,0.13346326289520008,0.09037353992462158,-0.0371510349214077,-0.04592499881982803,-0.032173216342926025,0.0,1791183592839,-0.009000001,8.733001,4.083,-0.250652,8.892653,4.110708,0.236068,-0.166652,-0.002938,0.0757625,-0.045925,0.0154,
36390201040567,-0.17482656240463257,-0.039720419142395255,9.596785202098156,0.05347076207399368,0.13496669322388766,0.127496075630188,-0.04150497168302536,-0.05128749832510948,-0.03168977424502373,0.0,1791183592850,0.030000001,8.71605,4.01595,-0.24474,8.895255,4.105429,0.258886,-0.164466,-0.045543,0.0746625,-0.0512875,0.0165,
36390211033552,-0.20187711715698242,-0.05820731231942773,9.598410192258857,0.011749105527997017,0.13051622804059182,0.1477699965238571,-0.03599296137690544,-0.04496249929070473,-0.0280464980751276,0.0,1791183592859,-0.072000004,8.74905,3.9469502,-0.238971,8.897832,4.100178,0.231569,-0.162255,-0.116907,0.0661375,-0.0449625,0.0154,
36390221026704,-0.20631322264671326,-0.07825490990653634,9.571388984283104,0.06143970452249051,0.120552028658434,0.171041738986969,-0.027540482580661774,-0.03849999979138374,-0.0223874282091856,0.0,1791183592869,-0.13095,8.754001,3.86805,-0.234083,8.900261,4.095188,0.171614,-0.121588,-0.219656,0.0523875,-0.0385,0.0207625,
36390231019933,-0.1857871264219284,-0.09719666922464967,9.652643027740766,0.1242127250880003,0.10522307339480022,0.18545930087566376,-0.03325080871582031,-0.050187498331069946,-0.014165977016091347,0.0,1791183592879,-0.12705001,8.806951,3.9490502,-0.228888,8.901992,4.091715,0.101776,-0.111349,-0.19703,0.032175,-0.0501875,0.03135,
36390241012942,-0.15349353849887848,-0.11201452324166894,9.67620662383795,0.16670506112277508,0.09016289705097888,0.18445951342582703,-0.034874431788921356,-0.05664999783039093,-0.010338365100324154,0.0,1791183592889,0.018000001,8.812051,3.9970503,-0.221783,8.902984,4.089952,0.180863,-0.109946,-0.118651,0.02255,-0.056649998,0.040975,
36390251006111,-0.1256384253501892,-0.12208690578117967,9.663931403953374,0.15888515673577785,0.07920408841463986,0.17462188601493836,-0.036277253180742264,-0.059812501072883606,-0.007729007862508297,0.0,1791183592900,0.076050006,8.78505,4.026,-0.212934,8.903584,4.089116,0.279753,-0.096181,-0.077115,0.016224999,-0.0598125,0.0441375,
36390260999127,-0.1104949489235878,-0.12520475396886468,9.715002780686396,0.1286846473813057,0.0774394161553617,0.15634545236825942,-0.03802543878555298,-0.06187500059604645,-0.005449534859508276,0.0,1791183592910,0.13305001,8.812051,4.08795,-0.203617,8.90379,4.089142,0.306348,-0.101175,-0.029256,0.0108624995,-0.061875,0.0441375,
36390270992281,-0.06630699336528778,-0.1216414631344378,9.757407351269254,0.07186591923236847,0.07842171257089686,0.12834420651197434,-0.03289341926574707,-0.05444999784231186,-0.002224677475169301,0.0,1791183592920,0.22005,8.821051,4.16505,-0.194136,8.903436,4.090377,0.368694,-0.096033,0.067669,0.0034375,-0.054449998,0.039875,
36390280985524,-0.03692098334431648,-0.11252765012905001,9.799846822536876,0.008197437971830368,0.07713575621058935,0.09857097789645194,-0.011125830002129078,-0.02681249938905239,0.0024499709252268076,0.0,1791183592931,0.25800002,8.839951,4.22205,-0.185556,8.902465,4.092885,0.43194,-0.075908,0.096287,-0.0072875,-0.0268125,0.03135,
36390290978524,0.023013737052679062,-0.09983728798106313,9.844002050759931,0.06422655284404756,0.07751201419486238,0.06326952278614044,0.01570362038910389,0.007287499960511923,0.008875148370862007,0.0,1791183592939,0.25095,8.838,4.32795,-0.179221,8.900698,4.097009,0.435182,-0.050199,0.183142,-0.0221375,0.0072875,0.0207625,
36390300971651,0.05183643475174904,-0.08691174117848277,9.884377151500653,0.11999544575810432,0.08012851543173671,0.027774550765752793,0.03207552433013916,0.030662499368190765,0.010025515221059322,0.0,1791183592950,0.13305001,8.84805,4.4040003,-0.175319,8.898311,4.102355,0.385789,-0.0526,0.254411,-0.0243375,0.0306625,0.009075,
36390310964650,0.09884807467460632,-0.07643953105434775,9.971788113636403,0.18513579294085503,0.0894885453630668,0.014094053953886031,0.036828942596912384,0.03698749840259552,0.008697038516402245,0.0,1791183592959,0.045,8.895,4.50705,-0.173542,8.895697,4.108096,0.254726,-0.045198,0.344438,-0.0210375,0.0369875,0.006875,
36390320957790,0.171342670917511,-0.06635569091886281,9.99474541968657,0.24708328768610954,0.10425944325558544,0.061623986810445786,0.03465188667178154,0.03382499888539314,0.003361060516908765,0.0,1791183592969,0.045,8.90505,4.53795,-0.172314,8.893215,4.113519,0.198431,-0.013986,0.446754,-0.0083875,0.033825,0.009075,
36390330951005,0.1976112574338913,-0.057994532771408557,10.037585856848866,0.2929899483919144,0.11754183099143733,0.10853043496608734,0.033019911497831345,0.03272499889135361,-6.590631091967225E-4,0.0,1791183592981,0.08505,8.971951,4.5,-0.17093,8.891308,4.117699,0.213807,0.035804,0.401873,0.0012375,0.032725,0.007975,
36390340944000,0.28784632682800293,-0.044151405803859234,10.15044283920132,0.3361188389360905,0.13916481036450346,0.16149695292115213,0.02559652179479599,0.026399999856948853,0.0020755429286509752,0.0,1791183592989,0.07095,9.04905,4.59795,-0.169371,8.889486,4.121692,0.243372,0.128605,0.417033,-0.0050875,0.0264,0.0037125,
36390350937163,0.43784666061401367,-0.022798378579318525,10.33334481752621,0.3950444504618644,0.17428738596895169,0.23869899809360504,0.03522169217467308,0.03918749839067459,0.009352585300803185,0.0,1791183592999,0.066,9.1369505,4.82595,-0.168731,8.886712,4.127699,0.233156,0.215177,0.585804,-0.0221375,0.0391875,-0.00165,
36390360930394,0.568791389465332,0.010666566528379917,10.46589332441169,0.4610318675637245,0.21552999225950953,0.3326876610517502,0.06172682344913483,0.07108750194311142,0.01621357910335064,0.0,1791183593009,0.08295,9.195001,4.998,-0.169619,8.882707,4.136276,0.246015,0.274249,0.768762,-0.0380875,0.0710875,-0.007975,
36390370923317,0.7098893523216248,0.05065875966101885,10.593546331839757,0.5389679752290248,0.2622845729451708,0.4403969973325729,0.10329194366931915,0.12223749607801437,0.021410705521702766,0.0,1791183593019,0.016050002,9.22605,5.2060504,-0.173256,8.877623,4.147028,0.256834,0.343976,0.951941,-0.049775,0.122237496,-0.0196625,
36390380916534,0.7441620826721191,0.09355182964354754,10.573464012735116,0.612976685166359,0.2994161749739735,0.5497071623802186,0.1461791694164276,0.17215000092983246,0.022521676495671272,0.0,1791183593030,-0.124050006,9.118051,5.352,-0.180744,8.871641,4.159487,0.113487,0.299679,1.119046,-0.051975,0.17215,-0.025024999,
36390390909563,0.6823358535766602,0.13559324610978365,10.532411561961068,0.6563796184957027,0.31943634715774605,0.62860506772995,0.17980164289474487,0.2083124965429306,0.014824945479631424,0.0,1791183593039,-0.165,9.03705,5.40705,-0.190711,8.865594,4.171916,0.044445,0.186017,1.209568,-0.033825,0.2083125,-0.0218625,
36390400902719,0.6858575344085693,0.17862745095044374,10.521701630196434,0.664113188534975,0.3324291707599654,0.6782072424888611,0.19579553604125977,0.22536249458789825,7.367376238107681E-4,0.0,1791183593049,-0.20295002,9.02505,5.40495,-0.201593,8.86055,4.18211,0.007444,0.17909,1.228105,-8.25E-4,0.2253625,-0.0187,
36390410895961,0.6255537867546082,0.21999899614602328,10.425450980656414,0.6279357351362705,0.3339843109855975,0.6895597219467163,0.19380514323711395,0.22439999878406525,-0.019689839333295822,0.0,1791183593059,-0.25605002,8.977051,5.295,-0.212931,8.857485,4.188032,-0.05065,0.13906,1.167116,0.047025,0.2244,-0.0187,
36390420888884,0.5301209092140198,0.25682070273905994,10.294620879647141,0.5450755983591079,0.3254402503713224,0.6536060333251953,0.17205104231834412,0.2008875012397766,-0.045636214315891266,0.0,1791183593069,-0.273,8.91195,5.1460505,-0.223585,8.857091,4.188311,-0.032813,0.093963,1.039944,0.1076625,0.2008875,-0.0165,
36390430882117,0.3810290992259979,0.28516151402145623,10.127079035356134,0.41948248371481894,0.3099749292181019,0.5809794366359711,0.1478155255317688,0.17531250417232513,-0.07327336817979813,0.0,1791183593080,-0.31605002,8.857051,4.90005,-0.233165,8.859789,4.182078,-0.068722,0.002679,0.883371,0.1725625,0.1753125,-0.0154,
36390440875115,0.17488743364810944,0.3015805626288056,9.82317534101299,0.2407907545566559,0.2946217532220343,0.47948975265026095,0.15105046331882477,0.18067499995231628,-0.10019583255052567,0.0,1791183593089,-0.28500003,8.7949505,4.3660502,-0.242885,8.866303,4.167694,-0.070974,-0.032565,0.476376,0.2365,0.180675,-0.0154,
36390450868257,-0.10866281390190125,0.30242934320122006,9.514853905091005,0.012101978063583374,0.2934117162930634,0.3205856829881668,0.15356796979904175,0.18603749573230743,-0.11485014110803604,0.0,1791183593100,-0.23400001,8.78295,3.6520503,-0.252648,8.876543,4.145256,-0.013326,-0.071535,-0.104524,0.2726625,0.1860375,-0.0187,
36390460861269,-0.48071831464767456,0.2839181749150157,9.215364695841961,0.34106573462486267,0.3284637895645313,0.09933126270771027,0.1482619196176529,0.18067499995231628,-0.1153169646859169,0.0,1791183593109,-0.25800002,8.710951,2.9959502,-0.2621,8.889934,4.11587,0.022461,-0.151963,-0.814946,0.275825,0.180675,-0.0196625,
36390470854415,-0.7246612310409546,0.25100046303123236,9.107926505798126,0.7013323277235032,0.38927319812762023,0.1516251653432846,0.11983014643192291,0.14451250433921814,-0.10311923176050186,0.0,1791183593119,-0.273,8.709001,2.6520002,-0.269883,8.904431,4.083906,0.032638,-0.216738,-1.264217,0.2481875,0.1445125,-0.0111375,
36390480847654,-0.740667998790741,0.21581311225891114,9.267999568666486,1.0045696526765824,0.441951187429788,0.3759645849466324,0.09751974791288376,0.11467500030994415,-0.09068332612514496,0.0,1791183593132,-0.13905,8.941051,2.436,-0.275245,8.918958,4.051724,0.073913,-0.111555,-1.540887,0.21945,0.114675,-0.00165,
36390490840654,-0.644420325756073,0.18244140911847354,9.27924538819772,1.21803337931633,0.4789036228095006,0.5398261368274688,0.06985697150230408,0.0859375,-0.08152739703655243,0.0,1791183593139,-0.06705,8.998051,2.26605,-0.278427,8.933318,4.019738,0.141739,0.046466,-1.664524,0.1992375,0.0859375,-0.006875,
36390500833820,-0.6663845181465149,0.14653036147356033,9.294234875334505,1.340930199623108,0.5130608797896269,0.6513704776763916,0.017246510833501816,0.02956249937415123,-0.07987184077501297,0.0,1791183593149,0.040050004,9.04395,2.1420002,-0.278838,8.947982,3.986963,0.266648,0.084475,-1.80892,0.1970375,0.0295625,-0.010175,
36390510827063,-0.6435947418212891,0.10940822064876557,9.402971373403078,1.3375517964363097,0.5412528216556529,0.6839457631111145,-0.033027227967977524,-0.021449999883770943,-0.08327214419841766,0.0,1791183593159,0.12105001,9.19005,1.9860001,-0.276706,8.963197,3.95279,0.367467,0.131509,-1.868121,0.2077625,-0.02145,-0.0187,
36390520819986,-0.5430894494056702,0.0736866146326065,9.571205161265521,1.2286108434200287,0.5592624164724919,0.6476314067840576,-0.07273026555776596,-0.059812501072883606,-0.08856875449419022,0.0,1791183593169,0.34605002,9.40995,1.7149501,-0.272602,8.979653,3.915551,0.507015,0.323349,-2.065514,0.2237125,-0.0598125,-0.0292875,
36390530813216,-0.44576817750930786,0.04151764288544655,9.794798579024075,1.068141195178032,0.5696168940039175,0.588651442527771,-0.08890050649642944,-0.06613750010728836,-0.09238629788160324,0.0,1791183593180,0.531,9.670951,1.45905,-0.267745,8.997538,3.874611,0.712847,0.520942,-2.287936,0.2374625,-0.0661375,-0.0548625,
36390540806216,-0.26516300439834595,0.013867176324129104,10.110578206466611,0.8333856612443924,0.5704100433704585,0.5127999782562256,-0.06313265860080719,-0.021449999883770943,-0.09858891367912292,0.0,1791183593189,0.588,10.03995,1.0380001,-0.265966,9.016965,3.829309,0.847538,0.829521,-2.573034,0.258775,-0.02145,-0.0930875,
36390550799386,-0.06970405578613281,-0.01151035949587822,10.471294677011914,0.4927951484918594,0.5622142613279018,0.39346388578414915,-0.008836045861244202,0.05623750016093254,-0.10748148709535599,0.0,1791183593199,0.69795,10.425,0.693,-0.27043,9.038539,3.777788,0.883127,1.171865,-2.921345,0.28861248,0.0562375,-0.1368125,
36390560792630,0.18014562129974365,-0.030942647904157638,10.696093328860707,0.07709064781665803,0.548366990768099,0.22871581315994263,0.06538806855678558,0.15729999542236328,-0.13249342143535614,0.0,1791183593209,0.82005006,10.662001,0.23595001,-0.281737,9.062946,3.718019,1.047662,1.532924,-3.182398,0.36313748,0.1573,-0.1835625,
36390570785615,-0.06707274913787842,-0.0697907529771328,10.499142107370776,0.2424521118402481,0.5213644098700356,0.13351247310638428,0.08854369074106216,0.2083124965429306,-0.18217281997203827,0.0,1791183593219,0.76095,10.43295,-0.89805007,-0.299564,9.09335,3.6416,1.154075,1.524068,-3.891278,0.5099875,0.2083125,-0.2399375,
36390580778766,-0.9979926943778992,-0.15689849182963372,10.199288701238782,0.2958687603473663,0.5236268432567889,0.24395737648010254,-0.019972078502178192,0.11151249706745148,-0.23574230074882507,0.0,1791183593230,0.294,9.835951,-2.6820002,-0.321099,9.132648,3.540001,0.895489,1.017901,-5.307603,0.67815,0.1115125,-0.2814625,
36390590771776,-2.130606174468994,-0.2975455932319164,10.07440557538091,0.034324467182159424,0.6434002256342555,0.6170460104942321,-0.24471312761306763,-0.1311749964952469,-0.26166388392448425,0.0,1791183593239,-0.39495003,9.17595,-4.1400003,-0.341009,9.179502,3.41474,0.278541,0.295883,-6.882226,0.7781125,-0.131175,-0.271975,
36390600764920,-2.9046449661254883,-0.4770707182586193,10.162096206231976,0.5000884294509886,0.8205052414608976,1.1840341925621032,-0.5167486071586609,-0.4482499957084656,-0.25884777307510376,0.0,1791183593249,-1.06305,8.742001,-5.07105,-0.352257,9.228919,3.277646,-0.37101,-0.277864,-7.942232,0.7951625,-0.44825,-0.19745,
36390610758135,-3.276085376739502,-0.6721526764333248,10.035232258186792,1.2276489853858947,0.9829074187461847,1.8752803921699523,-0.755793035030365,-0.7408499717712402,-0.22406335175037384,0.0,1791183593259,-1.33605,8.48805,-5.184,-0.350763,9.275925,3.142322,-0.884863,-0.652875,-8.3887,0.70895,-0.74085,-0.091025,
36390620751135,-3.367335081100464,-0.867025475949049,9.255227389667805,1.9466814160346986,1.1041100066656824,2.5353328585624695,-0.9296643137931824,-0.966487467288971,-0.16268250346183777,0.0,1791183593269,-1.4100001,8.080951,-4.28595,-0.335113,9.316036,3.023106,-1.111203,-1.040146,-7.833739,0.5248375,-0.96648747,0.022824999,
36390630744277,-3.3491501808166504,-1.0535344399511815,8.59003398248348,2.492764377593994,1.189301666761247,3.0055643558502196,-1.1162251234054565,-1.1995500326156616,-0.10096883773803711,0.0,1791183593279,-0.73995006,7.8199506,-3.4770002,-0.303585,9.347499,2.927819,-0.831484,-1.421163,-6.759223,0.324775,-1.19955,0.1271875,
36390640737267,-3.239950180053711,-1.2242763206362723,8.139631403606318,2.833969271183014,1.2445301680524836,3.2274331569671633,-1.4072754383087158,-1.5178624391555786,-0.03052474558353424,0.0,1791183593289,-0.30600002,7.80105,-2.3029501,-0.252354,9.370515,2.858283,-0.207551,-1.597408,-5.890024,0.0906125,-1.5178624,0.1590875,
36390650730500,-2.550452709197998,-1.3463658154010774,8.136933066353615,2.9278788924217225,1.2488622863708154,3.156594705581665,-1.5078845024108887,-1.6295125484466553,0.08398868888616562,0.0,1791183593299,0.34905002,8.11305,0.51600003,-0.192003,9.378891,2.835411,0.139111,-1.464526,-3.961366,-0.3009875,-1.6295125,0.1579875,
36390660723658,-1.077410340309143,-1.3762004166841506,9.863055582941259,2.583347225189209,1.23487508659244,2.7168596982955933,-1.3048319816589355,-1.4198249578475952,0.22873537242412567,0.0,1791183593309,1.2730501,8.55795,4.73505,-0.127635,9.36342,2.889646,0.917503,-0.989368,-0.40754,-0.7819625,-1.419825,0.14093749,
36390670716675,0.759246826171875,-1.3020050138235093,13.477256496929433,1.647585940361023,1.3138466815084147,1.8915433168411255,-0.8210920095443726,-0.8952624797821045,0.3802962005138397,0.0,1791183593320,2.2470002,9.121051,9.66405,-0.073868,9.321654,3.023461,1.85733,-0.538193,4.165645,-1.2343374,-0.8952625,0.0686125,
36390680709894,3.0755527019500732,-1.1111939787864684,17.539971251797002,0.010443270206451416,1.6223994165873314,0.6066027402877807,-0.21012340486049652,-0.21092499792575836,0.49892908334732056,0.0,1791183593329,2.73105,9.955951,14.179951,-0.063291,9.274134,3.166462,2.576984,0.273077,8.770348,-1.5428874,-0.210925,-0.0633875,
36390690703048,5.2773308753967285,-0.8151064187288284,20.82843881757224,2.2808876633644104,2.1387567959423723,1.0968534708023072,0.3554483652114868,0.43931248784065247,0.5707114338874817,0.0,1791183593338,2.4490502,10.272,17.95305,-0.087846,9.217963,3.325878,2.752373,0.973287,12.925282,-1.6759875,0.4393125,-0.2145,
36390700696048,6.8856096267700195,-0.4375067114830017,23.546367111879057,4.859346330165863,2.71949343881578,2.9840659379959105,0.6668093204498291,0.8138625025749207,0.5577153563499451,0.0,1791183593349,1.8859501,10.452001,21.015001,-0.139777,9.16062,3.479014,2.44278,1.25808,16.181492,-1.557875,0.8138625,-0.32725,
36390710689217,7.90082311630249,-0.010285818576812744,25.035437415148696,7.315045487880707,3.2691574563579744,4.7797126293182375,0.7920056581497192,0.9842249751091003,0.45759689807891846,0.0,1791183593358,0.39900002,10.251,22.837051,-0.208802,9.110398,3.605144,1.369771,1.243659,18.41365,-1.22045,0.984225,-0.4049375,
36390720682218,8.385371208190918,0.43613721430301666,25.328149951400032,9.310501861572266,3.741424302358637,6.304937505722046,0.7552963495254517,0.9512249827384949,0.26587334275245667,0.0,1791183593369,-1.0870501,9.934951,23.272951,-0.280192,9.076473,3.684987,-0.086339,1.1052,19.57161,-0.6777375,0.951225,-0.385825,
36390730675433,7.726437091827393,0.8447474777698517,23.400133115630332,10.462547540664673,4.055838904847626,7.23511438369751,0.6814442873001099,0.8533250093460083,0.0062364861369132996,0.0,1791183593380,-1.8790501,9.166051,21.448051,-0.341639,9.066283,3.704832,-1.293819,0.538388,19.001099,0.0097624995,0.853325,-0.2847625,
36390740668587,5.6433916091918945,1.1401752084493637,19.209991760274402,10.464921236038208,4.177595706755426,7.308326530456543,0.6089133024215698,0.7458000183105469,-0.2630600333213806,0.0,1791183593392,-1.8460501,8.26605,17.24205,-0.387233,9.08274,3.659765,-1.533134,-0.383076,15.900183,0.719675,0.7458,-0.1442375,
36390750661587,2.866764545440674,1.286998638510704,14.212836336308488,9.221417212486267,4.1840905720019546,6.504557514190674,0.5073208212852478,0.6095374822616577,-0.472025990486145,0.0,1791183593400,-1.7380501,7.3939505,12.013051,-0.415547,9.121868,3.557926,-1.361169,-1.317637,11.115457,1.3017125,0.6095375,-0.0133375,
36390760654745,0.159493088722229,1.2859660118818284,9.826933314584869,6.847834825515747,4.184366153499551,4.956291508674622,0.3753206729888916,0.44247499108314514,-0.593345046043396,0.0,1791183593408,-1.692,6.76905,6.9199505,-0.427103,9.175714,3.415237,-1.282575,-2.135233,6.033996,1.69015,0.442475,0.09955,
36390770647756,-2.0129175186157227,1.188673773407936,7.10626877504816,3.4832365036010744,4.236985987684368,2.8766337633132935,0.2686765193939209,0.29782500863075256,-0.6384879350662231,0.0,1791183593419,-1.64505,6.49905,2.35695,-0.436028,9.226149,3.275376,-1.264073,-2.64296,1.253772,1.8816875,0.297825,0.2154625,
36390780640976,-3.3762526512145996,1.0697607755661012,7.011796939600084,0.44075765609741224,4.3290601878262045,0.656095814704895,0.16542714834213257,0.15303750336170197,-0.610971987247467,0.0,1791183593431,-1.3069501,6.74805,-1.386,-0.417039,9.287781,3.098904,-1.098709,-2.683044,-2.78355,1.88925,0.1530375,0.318725,
36390790634130,-4.02008056640625,0.9752870559692383,8.058385383585316,4.260664558410644,4.417583461543889,1.276598620414734,0.033586449921131134,-0.006599999964237213,-0.5464332103729248,0.0,1791183593439,-0.96495,6.939,-3.9820502,-0.38618,9.345142,2.92561,-0.724948,-2.45789,-5.710748,1.781725,-0.0066,0.368775,
36390800627136,-4.5285234451293945,0.894093132019043,9.216622189805092,7.535368847846986,4.502260994568843,2.7556562185287476,-0.08991076797246933,-0.13956250250339508,-0.4589989185333252,0.0,1791183593449,-0.73005,6.9040504,-6.06195,-0.35688,9.414038,2.699727,-0.510039,-2.507632,-7.761751,1.616725,-0.1395625,0.374,
36390810620310,-4.402665138244629,0.8377641439437866,10.281128257882628,9.973025369644166,4.5607503853262115,3.668087863922119,-0.2310241460800171,-0.28008750081062317,-0.3703720271587372,0.0,1791183593459,-0.56505,6.8509502,-7.6450505,-0.32069,9.474747,2.483208,0.090628,-2.103865,-9.336096,1.4177625,-0.2800875,0.3400375,
36390820613310,-5.244566440582275,0.743902575969696,11.345882770465275,11.549532032012939,4.6644644253826515,4.3144176483154295,-0.3646679222583771,-0.41635000705718994,-0.27853184938430786,0.0,1791183593469,-0.33705002,6.7960505,-9.07905,-0.285677,9.526059,2.283109,-0.253237,-2.82316,-10.764054,1.1559625,-0.41635,0.316525,
36390830606548,-5.021227836608887,0.6602986931800843,11.774807301342017,11.951739215850829,4.751254692884072,4.643412685394287,-0.5368358492851257,-0.5972999930381775,-0.18162573873996735,0.0,1791183593480,0.109050006,7.1719503,-9.337951,-0.245192,9.566488,2.112387,0.137234,-2.605015,-11.48158,0.80685,-0.5973,0.3081375,
36390840599688,-4.40750789642334,0.6019208073616028,11.455690472790636,11.22545566558838,4.805678859112789,4.720898151397705,-0.6354144811630249,-0.6994624733924866,-0.0874195247888565,0.0,1791183593488,0.39195,7.5600004,-8.598001,-0.20104,9.59568,1.980534,0.483337,-2.210434,-11.050452,0.4035625,-0.6994625,0.285725,
36390850592695,-3.852832317352295,0.5368018269538879,10.392147336106127,9.542051434516907,4.856508740445791,4.585759925842285,-0.6489582061767578,-0.7100499868392944,-0.0030060699209570885,0.0,1791183593498,0.43305,7.65495,-7.0150504,-0.158617,9.614392,1.891645,0.579778,-1.999302,-9.750097,-0.0050875,-0.71005,0.2464,
36390860585899,-3.4175102710723877,0.4197968304157257,9.44175513973632,7.26536271572113,4.921740763103468,4.388728952407837,-0.5573228597640991,-0.6142125129699707,0.06904100626707077,0.0,1791183593508,0.62205005,7.806,-5.27505,-0.120069,9.623814,1.846028,0.613056,-1.939292,-7.992625,-0.38073748,-0.6142125,0.218625,
36390870579062,-2.831737756729126,0.24024760127067565,8.829263268182187,4.562259030342102,4.971333498881035,3.906163215637207,-0.36782410740852356,-0.4195125102996826,0.14290644228458405,0.0,1791183593521,1.1920501,8.139,-3.2080503,-0.083571,9.623939,1.847391,0.94287,-1.683237,-6.210308,-0.7671125,-0.4195125,0.1995125,
36390880572293,-1.9661284685134888,-0.01183645725250244,8.81734872841444,2.0185447216033934,4.948946090017965,3.2951433420181275,-0.0957336574792862,-0.1363999992609024,0.22780467569828033,0.0,1791183593529,1.77795,8.623051,-0.47700003,-0.047146,9.612508,1.907217,1.607947,-1.243244,-3.796924,-1.1746625,-0.1364,0.1665125,
36390890565201,-0.8826306462287903,-0.31983453333377837,9.719491733238726,0.16548832654952994,4.799620209909728,2.5901678919792177,0.15369030833244324,0.13282500207424164,0.31569376587867737,0.0,1791183593538,1.79295,9.07695,2.97705,-0.01728,9.587111,2.031504,1.927635,-0.71267,-0.878179,-1.523775,0.132825,0.1016125,
36390900558432,0.41817760467529297,-0.6432061344385147,12.000822023115576,1.932121956348419,4.512548812538941,1.7359659075737,0.2952890992164612,0.2913624942302704,0.39076173305511475,0.0,1791183593549,1.23,9.607051,7.0860004,-0.001544,9.547099,2.211994,1.490519,-0.217761,2.793601,-1.7312624,0.2913625,0.0495,
36390910551423,2.0677084922790527,-0.9348618656396865,15.068649573655446,3.6754954934120176,4.122555619248304,0.6389221549034119,0.3598392903804779,0.3605250120162964,0.41994333267211914,0.0,1791183593558,0.86805004,10.275001,10.98795,-0.005342,9.505826,2.383119,1.013082,0.441216,6.745292,-1.727,0.360525,0.0378125,
36390920544588,3.686462163925171,-1.169807317852974,17.3683395251224,5.308130514621734,3.696587619692715,0.6647178292274475,0.41126611828804016,0.41690000891685486,0.3888329267501831,0.0,1791183593568,0.72705,10.795951,13.585951,-0.012155,9.46557,2.538281,0.825965,1.144665,9.968349,-1.5013624,0.4169,0.0259875,
36390930537586,4.631131172180176,-1.3245726138353349,17.996228870134694,6.705067908763885,3.3713786307153173,1.9841697573661805,0.5029183626174927,0.5233250260353088,0.3008973300457001,0.0,1791183593579,0.40605003,11.092951,14.16495,-0.025219,9.432211,2.659473,0.618762,1.577857,11.475214,-1.1086625,0.523325,-0.0133375,
36390940530738,4.693081855773926,-1.3720881015062332,17.033812679097856,7.685072183609009,3.2782492500092686,3.099312257766724,0.568514883518219,0.606374979019165,0.18458864092826843,0.0,1791183593589,-0.064050004,11.022,12.987,-0.045922,9.409522,2.738392,0.206115,1.679555,11.027588,-0.6595875,0.606375,-0.0600875,
36390950523952,3.9799017906188965,-1.316431239247322,15.005512621797163,8.200386047363281,3.3582162915771017,3.8116570949554442,0.573327362537384,0.6212249994277954,0.07293535768985748,0.0,1791183593598,-0.483,10.600051,10.60995,-0.071199,9.398069,2.77691,-0.213929,1.453981,9.119198,-0.2552,0.621225,-0.0856625,
36390960516957,2.7871344089508057,-1.1850491732358932,12.945990866207142,7.861705493927002,3.4631489044081536,3.955542278289795,0.5147616863250732,0.5616874694824219,-0.00802094116806984,0.0,1791183593608,-0.69600004,10.107,8.059951,-0.096069,9.395577,2.784583,-0.53143,0.97045,6.51621,0.031075,0.56168747,-0.082499996,
36390970510113,1.6824753284454346,-1.0002795308828354,11.477245379333315,6.849888253211976,3.512282313808382,3.554744911193848,0.3946435749530792,0.4296875,-0.052719127386808395,0.0,1791183593619,-0.82800007,9.69795,6.0820503,-0.115781,9.398583,2.773674,-0.643399,0.500575,4.221503,0.1885125,0.4296875,-0.0537625,
36390980503341,0.7824349403381348,-0.7923451513051987,10.368777483667904,5.375173556804658,3.4884855563050428,2.7850056648254395,0.2627065181732178,0.2807750105857849,-0.07670421153306961,0.0,1791183593629,-0.77805007,9.331051,4.4539504,-0.133065,9.39854,2.773046,-0.693153,0.081632,2.455209,0.2715625,0.280775,-0.010175,
36390990496336,0.07376502454280853,-0.5876528717577457,9.656645078816469,3.597108206152916,3.412363710623923,1.861142298579216,0.16736026108264923,0.17008750140666962,-0.08437636494636536,0.0,1791183593638,-0.67200005,9.097051,3.1690502,-0.142837,9.402794,2.758096,-0.587613,-0.221896,0.988148,0.2982375,0.1700875,0.03025,
36391000489485,-0.3899998366832733,-0.3807266913354397,9.260235517983478,1.6260841280221938,3.2904160742601047,0.9871619731187821,0.10037102550268173,0.09129999577999115,-0.07668592780828476,0.0,1791183593649,-0.62505,8.962951,2.2420502,-0.146515,9.409487,2.734982,-0.488166,-0.388999,-0.085281,0.2715625,0.091299996,0.0600875,
36391010482477,-0.6844351291656494,-0.1948151908814907,9.00376909762144,0.37186976373195646,3.1603935440024538,0.29284806549549103,0.03785170614719391,0.017875000834465027,-0.06282635778188705,0.0,1791183593658,-0.58905005,8.793,1.845,-0.14565,9.417007,2.709019,-0.47706,-0.509048,-0.732088,0.2226125,0.017875,0.0867625,
36391020475721,-0.9046182036399841,0.022182220965623854,8.901626164485913,2.208740398287773,2.9480826155108617,0.2245706409215927,-0.023770613595843315,-0.05444999784231186,-0.04889686405658722,0.0,1791183593669,-0.40395,8.7300005,1.692,-0.139479,9.423884,2.685325,-0.361127,-0.673942,-0.954997,0.1725625,-0.054449998,0.113299996,
36391030468870,-0.9323705434799194,0.22662508562207223,8.942599843489646,3.666843995451927,2.724546479972726,0.5675317376852036,-0.07692403346300125,-0.11508750170469284,-0.035924412310123444,0.0,1791183593679,-0.25605002,8.742001,1.866,-0.127964,9.429615,2.665706,-0.209836,-0.710798,-0.923407,0.1258125,-0.1150875,0.13035,
36391040461875,-0.8513695001602173,0.40443200543522834,9.006726950095052,4.564215737581253,2.5250509722346344,0.7525586426258087,-0.08937961608171463,-0.1321374922990799,-0.02360726334154606,0.0,1791183593689,-0.045,8.74005,2.1750002,-0.112713,9.433416,2.652915,-0.047917,-0.705022,-0.640072,0.081125,-0.13213749,0.1431375,
36391050455029,-0.7380173802375793,0.5601727522909641,9.12684063673881,4.777704429626465,2.347482009811603,0.8221621513366699,-0.0950421392917633,-0.13859999179840088,-0.01669299602508545,0.0,1791183593698,0.09705,8.77095,2.52195,-0.094795,9.435445,2.646397,0.128095,-0.690291,-0.267241,0.056649998,-0.13859999,0.1442375,
36391060448045,-0.6425959467887878,0.6989184685051442,9.213706678767224,4.368539226055145,2.1846409151341066,0.8137943148612976,-0.08945658802986145,-0.1311749964952469,-0.012607108801603317,0.0,1791183593708,0.26295,8.781,2.778,-0.075929,9.436126,2.644573,0.293583,-0.671818,0.02428,0.0427625,-0.131175,0.137775,
36391070441260,-0.5229448676109314,0.8143581129610539,9.341938092946535,3.522465312480927,2.051999134535353,0.7374596476554871,-0.07218298316001892,-0.10986249893903732,-0.007972745224833488,0.0,1791183593719,0.36600003,8.821051,3.0540001,-0.057398,9.43572,2.646485,0.366032,-0.616347,0.268971,0.0268125,-0.1098625,0.1249875,
36391080434413,-0.4304274320602417,0.8911431647837162,9.509115390750683,2.4982133239507673,1.9737587935502983,0.6370710253715515,-0.04086902737617493,-0.07369999587535858,-0.0025389811489731073,0.0,1791183593729,0.45900002,8.857051,3.4300501,-0.040059,9.434058,2.652721,0.468402,-0.609896,0.585953,0.0077,-0.073699996,0.111237496,
36391090427410,-0.3057723641395569,0.9199860788881778,9.613088914417043,1.5151135712862014,1.9517193763346934,0.5279515981674194,0.0065432023257017136,-0.018287500366568565,-6.352041964419186E-6,0.0,1791183593738,0.44505003,8.85,3.72705,-0.025438,9.43111,2.66337,0.508848,-0.578218,0.927251,-8.25E-4,-0.0182875,0.088825,
36391100420633,-0.25405365228652954,0.8863745160400868,9.615514499775415,0.7240069180727005,1.9658094170296465,0.4311588525772095,0.06115427613258362,0.04441250115633011,-0.0010442007333040237,0.0,1791183593749,0.31800002,8.830951,3.7909503,-0.015322,9.427556,2.675998,0.405358,-0.579452,1.113342,0.0034375,0.0444125,0.0675125,
36391110413787,-0.27809008955955505,0.7690845869481564,9.55365585383469,0.1336870402097702,1.961803030207145,0.3582576811313629,0.09539352357387543,0.08387500047683716,-0.003031365340575576,0.0,1791183593758,0.11895001,8.821051,3.6670501,-0.009496,9.42419,2.687858,0.251091,-0.588056,1.04881,0.0108624995,0.083875,0.0537625,
36391120406787,-0.34349799156188965,0.5675865791738033,9.491743320632352,0.24516343176364902,1.8559113894689834,0.3223683059215546,0.0904165729880333,0.07961250096559525,-0.004765015561133623,0.0,1791183593769,-0.025950002,8.82405,3.4969501,-0.00652,9.421357,2.697783,0.049397,-0.61156,0.88805,0.0171875,0.0796125,0.0504625,
36391130399962,-0.36642733216285706,0.3177086539566517,9.449680368420918,0.4429903566837311,1.6124414638711133,0.30956828594207764,0.07647755742073059,0.06476250290870667,-0.0035919821821153164,0.0,1791183593779,-0.094950005,8.81595,3.4009502,-0.004316,9.418915,2.706297,-0.053363,-0.589964,0.726307,0.012925,0.0647625,0.0515625,
36391140393182,-0.4429793059825897,0.060905595868825914,9.354016180784711,0.48515247702598574,1.267184848247622,0.3370096743106842,0.046910610049963,0.03272499889135361,-3.546616353560239E-4,0.0,1791183593789,-0.19095,8.709001,3.4080002,-0.002071,9.416351,2.715209,-0.15377,-0.652044,0.662328,0.0012375,0.032725,0.055825,
36391150386206,-0.5127178430557251,-0.16372538581490517,9.313863417232836,0.4250518023967743,0.8965623210112369,0.3887425124645233,-0.0025825966149568558,-0.022549999877810478,-3.327142330817878E-4,0.0,1791183593798,-0.20595,8.658,3.42705,0.001625,9.413543,2.724925,-0.231687,-0.733033,0.688525,0.0012375,-0.02255,0.0686125,
36391160379362,-0.5006532073020935,-0.3281147666275501,9.401446462135535,0.3042045116424561,0.5891497843158904,0.433255136013031,-0.06125769764184952,-0.08744999766349792,-0.00384126091375947,0.0,1791183593808,-0.076050006,8.71605,3.52305,0.008584,9.410933,2.73391,-0.176397,-0.730423,0.720241,0.014025,-0.08745,0.0814,
36391170372355,-0.4058476984500885,-0.4325309179723263,9.513380437344509,0.19134594798088067,0.3665695426682523,0.4457250773906708,-0.10872404277324677,-0.13859999179840088,-0.008213411085307598,0.0,1791183593819,0.21195,8.769,3.6829503,0.019697,9.408475,2.742298,0.051909,-0.672898,0.857899,0.029975,-0.13859999,0.0867625,
36391180365525,-0.32251498103141785,-0.4877784140408039,9.59210280620956,0.0910089910030365,0.24107886109366944,0.43694260716438293,-0.12407343089580536,-0.15138749778270721,-0.01294260285794735,0.0,1791183593829,0.363,8.78505,3.834,0.033258,9.406093,2.750332,0.272979,-0.639391,1.034219,0.047025,-0.1513875,0.075075,
36391190358744,-0.2730492949485779,-0.5051191300153732,9.622464075184586,0.028202247619628917,0.21061147854331408,0.40295660495758057,-0.10773759335279465,-0.1289750039577484,-0.01896674744784832,0.0,1791183593838,0.38505003,8.81595,3.8370001,0.045737,9.403998,2.757306,0.337115,-0.613355,1.115831,0.0683375,-0.128975,0.055825,
36391200351760,-0.27305349707603455,-0.4992718130350113,9.590863791791415,0.0032339453697204368,0.21529771037576015,0.3550237357616425,-0.07037855684757233,-0.08428750187158585,-0.02235584519803524,0.0,1791183593849,0.423,8.85495,3.66,0.055311,9.402467,2.76235,0.337118,-0.585487,1.017413,0.080025,-0.0842875,0.0356125,
36391210344914,-0.29756271839141846,-0.47992819249629975,9.49120076781451,0.007962667942047141,0.21517198632389675,0.31440563797950744,-0.03148811310529709,-0.03849999979138374,-0.02126670442521572,0.0,1791183593860,0.37800002,8.863951,3.3720002,0.062125,9.401553,2.765314,0.356641,-0.539084,0.77024,0.0757625,-0.0385,0.0176,
36391220337924,-0.33925819396972656,-0.45166019201278684,9.497883008510708,0.008480548858642578,0.19357485888732423,0.30108773708343506,-0.01859840750694275,-0.020487500354647636,-0.013263276778161526,0.0,1791183593870,0.30105,8.922001,3.2430003,0.066009,9.400816,2.767732,0.276142,-0.504828,0.506854,0.047025,-0.0204875,0.0026125,
36391230331153,-0.32485246658325195,-0.4212842881679535,9.53042241156699,0.03545444011688231,0.16061886041154955,0.30155523419380187,0.001145447138696909,0.0019249999895691872,-0.0015743280528113246,0.0,1791183593880,0.33900002,8.97,3.2020502,0.068267,9.399323,2.77274,0.257125,-0.467421,0.43002,0.0055,0.001925,-0.0026125,
36391240324307,-0.2497498095035553,-0.3912033036351204,9.613763118973413,0.09184717535972592,0.1308284834401596,0.2968953371047974,0.015389147214591503,0.01993750035762787,0.010137571953237057,0.0,1791183593889,0.30600002,9.0390005,3.2599502,0.06935,9.396781,2.781315,0.258436,-0.390659,0.433416,-0.036025,0.0199375,-0.0122375,
36391250317299,-0.20434467494487762,-0.36451966837048533,9.628262631254033,0.150101563334465,0.11016298315511941,0.283153572678566,0.02829434722661972,0.03492499887943268,0.01924734003841877,0.0,1791183593899,0.23400001,9.027,3.3409503,0.068821,9.393122,2.793662,0.189533,-0.365452,0.50726,-0.067925,0.034925,-0.0165,
36391260310538,-0.16331243515014648,-0.34055549278855324,9.682013637808943,0.1894215613603592,0.09858751366361752,0.2563035160303116,0.022667797282338142,0.02956249937415123,0.025140907615423203,0.0,1791183593908,0.26295,9.019951,3.5089502,0.067712,9.388572,2.808936,0.197824,-0.351326,0.599726,-0.0881375,0.0295625,-0.0176,
36391270303707,-0.135783389210701,-0.3211974188685417,9.759615330248764,0.22133405208587648,0.09888401965060575,0.21560855507850646,0.013687876053154469,0.018975000828504562,0.026557445526123047,0.0,1791183593919,0.25095,9.0390005,3.6720002,0.067213,9.383335,2.826401,0.191141,-0.374819,0.769009,-0.0924,0.018975,-0.0133375,
36391280296709,-0.07053747773170471,-0.3032029211521149,9.820967432631486,0.23821104764938356,0.10954089606004724,0.164745557308197,2.819928340613842E-5,0.003987499978393316,0.023347830399870872,0.0,1791183593928,0.21705002,9.05595,3.79395,0.067417,9.377962,2.844164,0.195725,-0.340716,0.875744,-0.0807125,0.0039875,-0.0111375,
36391290289853,-0.0056496262550354,-0.2881967842578888,9.86601690498566,0.23909821510314944,0.12728154551423373,0.11592552065849304,-0.006200133357197046,-0.004537499975413084,0.0191558375954628,0.0,1791183593938,0.21000001,9.09195,3.8250003,0.0679,9.37277,2.861225,0.121022,-0.299611,0.95924,-0.065725,-0.0045375,-0.0048125,
36391300283067,-0.01091092824935913,-0.27603964805603026,9.860271407476095,0.2371668666601181,0.14085056085064013,0.07723877131938935,0.0029158885590732098,0.0019249999895691872,0.014037992805242538,0.0,1791183593949,0.27495003,9.09405,3.801,0.069175,9.368118,2.876383,0.138901,-0.294959,0.92014,-0.0477125,0.001925,0.0048125,
36391310276062,0.06086345016956329,-0.2590919710695744,9.917934051494095,0.2686841428279877,0.15882893754251734,0.032403594255447386,0.010984438471496105,0.009349999949336052,0.012225011363625526,0.0,1791183593960,0.32205,9.142051,3.83205,0.071646,9.363749,2.890515,0.263323,-0.22834,0.939526,-0.041249998,0.00935,0.007975,
36391320269218,0.08423484861850739,-0.2377053290605545,9.907687209342246,0.31315528750419613,0.17408816555283724,0.011600053310394287,0.021703224629163742,0.02213750034570694,0.008493123576045036,0.0,1791183593968,0.21495001,9.142051,3.8130002,0.07323,9.359705,2.903542,0.187518,-0.205142,0.940864,-0.0286,0.0221375,0.0026125,
36391330262218,0.0703694075345993,-0.21586549207568168,9.907983514547347,0.3366767674684525,0.18370287250966288,0.03978143036365509,0.038326993584632874,0.03918749839067459,0.007554803974926472,0.0,1791183593978,0.126,9.151951,3.79395,0.073364,9.355956,2.915602,0.09401,-0.203788,0.888103,-0.0253,0.0391875,0.0037125,
36391340255372,0.12527984380722046,-0.18745253458619118,9.998603137218925,0.34912089705467225,0.19020889043724448,0.06596732437610626,0.053097859025001526,0.05403750017285347,0.00792902335524559,0.0,1791183593989,0.19305001,9.216001,3.8730001,0.07272,9.352262,2.927442,0.104231,-0.149816,0.895417,-0.0264,0.0540375,0.005775,
36391350248620,0.15927904844284058,-0.1538526900112629,10.024768080768036,0.35630883574485783,0.18913417442310684,0.10000531971454621,0.07247559726238251,0.07535000145435333,0.007608751300722361,0.0,1791183593998,0.25305,9.22095,3.9250503,0.071931,9.34838,2.939836,0.138539,-0.141145,0.976397,-0.0253,0.07535,0.0026125,
36391360241610,0.15474480390548706,-0.12108278945088387,9.970555131568432,0.3343901455402374,0.18288236731543758,0.11878159046173095,0.07880400866270065,0.0849749967455864,0.006288097705692053,0.0,1791183594009,0.12900001,9.18795,3.8700001,0.070124,9.344517,2.952131,0.121192,-0.149253,0.983255,-0.0210375,0.084975,-0.006875,
36391370234771,0.08849377930164337,-0.09636571556329727,9.901936061297349,0.28437893390655516,0.176001678321464,0.11963337659835815,0.06692653149366379,0.07218749821186066,0.004075057804584503,0.0,1791183594019,0.058950003,9.156,3.7699502,0.067164,9.341127,2.962915,0.014019,-0.176988,0.850367,-0.013612499,0.0721875,-0.0059125,
36391380227991,0.02011685073375702,-0.07923412397503853,9.79104800589578,0.22550838589668273,0.16971839688317245,0.10958286523818969,0.023567944765090942,0.023237500339746475,0.0015752147883176804,0.0,1791183594029,0.016050002,9.05805,3.7170002,0.065626,9.338174,2.972242,-0.039509,-0.221919,0.764425,-0.0050875,0.0232375,0.0048125,
36391390220997,-0.03100086748600006,-0.06713170260190963,9.81924052947817,0.15556549429893496,0.16399991452468207,0.0783267229795456,-0.02618391439318657,-0.033137500286102295,-0.0012185984523966908,0.0,1791183594038,0.033,9.06495,3.7740002,0.066622,9.335491,2.98064,-0.040505,-0.276697,0.765605,0.0044,-0.0331375,0.0176,
36391400214137,0.026368632912635803,-0.05216059610247612,9.891620927385143,0.08414823412895203,0.15807834861036502,0.05174463987350464,-0.0661526769399643,-0.0789249986410141,-0.003101504407823086,0.0,1791183594048,0.14505,9.115951,3.8370001,0.070692,9.33287,2.988735,0.010491,-0.233375,0.81497,0.0108624995,-0.078925,0.0292875,
36391410207137,0.024478480219841003,-0.036058536171913146,9.895009651467142,0.01409132182598114,0.148364602534276,0.025691375136375427,-0.08473709225654602,-0.10023749619722366,-0.005320110823959112,0.0,1791183594060,0.14805001,9.08895,3.9090002,0.077103,9.330337,2.996479,0.059147,-0.254783,0.87187,0.0182875,-0.100237496,0.0345125,
36391420200365,0.040611326694488525,-0.017065060138702393,9.96795631574054,0.023666545748710632,0.13171452054535077,0.01611488461494446,-0.08029861748218536,-0.09707500040531158,-0.007212677970528603,0.0,1791183594068,0.22905001,9.118051,4.02105,0.084091,9.327741,3.004363,0.104831,-0.268946,0.964542,0.0246125,-0.097075,0.038775,
36391430193514,0.15278396010398865,0.006816761195659637,10.01546135579307,0.023319017887115483,0.11612128847813491,0.04264830648899078,-0.06322088837623596,-0.07796250283718109,-0.011510426178574562,0.0,1791183594079,0.291,9.147,4.0690503,0.091288,9.325287,3.01176,0.176643,-0.18509,1.064884,0.0385,-0.0779625,0.0345125,
36391440186507,0.1327737271785736,0.025942938029766084,9.92480674383961,0.024602094292640694,0.10305474565247347,0.07540322542190551,-0.02970503829419613,-0.03959999978542328,-0.018515797331929207,0.0,1791183594088,0.34605002,9.10095,3.9439502,0.097143,9.323503,3.017098,0.249796,-0.188094,1.004479,0.0609125,-0.0396,0.023924999,
36391450179706,0.050620123744010925,0.03869117796421051,9.84473620824006,0.03852806687355041,0.08852452722455308,0.08025352358818054,0.006673209369182587,0.0030249999836087227,-0.020957276225090027,0.0,1791183594099,0.36105,9.097051,3.7459502,0.100704,9.322463,3.020188,0.24863,-0.213391,0.814641,0.0683375,0.003025,0.0100375,
36391460172855,-0.00525076687335968,0.04659426137804985,9.777296537651765,0.045325702428817755,0.07635708829655041,0.0743076741695404,0.0393737256526947,0.04124999791383743,-0.019097434356808662,0.0,1791183594109,0.38505003,9.08895,3.5830503,0.102176,9.321859,3.022,0.268706,-0.219969,0.652418,0.061875,0.041249998,-0.00165,
36391470165850,-0.06366296112537384,0.05020028278231621,9.720271049365286,0.05613004863262176,0.06900836128147096,0.05345281660556793,0.0644095316529274,0.07218749821186066,-0.015008511953055859,0.0,1791183594118,0.38205,9.05595,3.5110502,0.10175,9.321309,3.023719,0.300255,-0.238573,0.519018,0.048125,0.0721875,-0.0154,
36391480159030,-0.061561957001686096,0.050649058818817136,9.7571259218741,0.06774308979511262,0.06824670027336759,0.010583633184432983,0.06891722232103348,0.07961250096559525,-0.009152148850262165,0.0,1791183594128,0.31095,9.085051,3.5449502,0.099743,9.320308,3.026864,0.26635,-0.232783,0.50869,0.028875,0.0796125,-0.0229625,
36391490152245,-0.05942131578922272,0.047960474342107776,9.76357437863287,0.07960001528263091,0.07139804537226448,0.027855375409126283,0.068742536008358,0.08167500048875809,-0.004626160021871328,0.0,1791183594138,0.23205002,9.099,3.5329502,0.096238,9.318815,3.031572,0.162116,-0.228897,0.506377,0.014025,0.081675,-0.0292875,
36391500145235,-0.07213233411312103,0.04489940404891968,9.74167437724,0.0780972421169281,0.07507418172460478,0.052405866980552676,0.0537603385746479,0.06572499871253967,-6.485683843493462E-4,0.0,1791183594148,0.13305001,9.07005,3.5520003,0.092137,9.316939,3.037462,0.084814,-0.24378,0.512458,0.0012375,0.065725,-0.0281875,
36391510138391,-0.07612636685371399,0.038049913197755816,9.752584500613626,0.082695871591568,0.07942818491820484,0.06658098697662354,0.03202575817704201,0.03918749839067459,0.0030968247447162867,0.0,1791183594160,0.10695001,9.06795,3.588,0.088918,9.31464,3.044596,0.028178,-0.248663,0.5149,-0.01045,0.0391875,-0.0165,
36391520131384,-0.06255710124969482,0.030710315704345702,9.755842143944863,0.1090081214904785,0.0815745243494916,0.06635981500148773,0.002551682759076357,0.005087499972432852,0.00486412039026618,0.0,1791183594168,0.058950003,9.05595,3.62805,0.087392,9.312037,3.052598,9.73E-4,-0.250848,0.564359,-0.0158125,0.0050875,-0.006875,
36391530124534,-0.03429591655731201,0.02547704949975014,9.801312304385355,0.13630983233451843,0.08221717753049201,0.06090660691261292,-0.012675381265580654,-0.014024999924004078,0.005950482562184334,0.0,1791183594178,0.08805001,9.063001,3.73095,0.087202,9.309202,3.061234,-0.020384,-0.231254,0.594031,-0.018975,-0.014025,0.0026125,
36391540117773,-0.009681269526481628,0.018728993833065033,9.807508626720846,0.13121212124824524,0.07923322224962401,0.0509585976600647,-0.02350321225821972,-0.027912499383091927,0.00504525750875473,0.0,1791183594189,0.13305001,9.03705,3.8080502,0.088436,9.306065,3.070726,-0.004858,-0.24727,0.718613,-0.0158125,-0.0279125,0.0100375,
36391550110780,-0.048986464738845825,0.008315718173980713,9.810305083272695,0.12063709795475006,0.07355963887925157,0.046329423785209656,-0.015954092144966125,-0.021449999883770943,0.003071100916713476,0.0,1791183594199,0.18105,9.027,3.8370001,0.090731,9.302929,3.080143,0.088614,-0.294413,0.730744,-0.00935,-0.02145,0.0143,
36391560104009,-0.0012552887201309204,5.157135426998138E-4,9.82863114772391,0.08480802476406096,0.06544223980761975,0.03135520815849304,-0.0018243854865431786,-0.006599999964237213,0.0024331158492714167,0.0,1791183594208,0.22905001,9.0390005,3.8530502,0.093055,9.299843,3.089379,0.088684,-0.255414,0.76221,-0.0072875,-0.0066,0.0143,
36391570097163,-0.024080216884613037,-0.005112986266613007,9.783547673220566,0.03424346446990967,0.062403889914328776,0.023659831285476683,0.027144886553287506,0.02419999986886978,0.0010854903375729918,0.0,1791183594218,0.29895002,9.007951,3.8059502,0.094901,9.296889,3.098203,0.151482,-0.271614,0.734233,-0.003025,0.0242,0.0133375,
36391580090165,-0.05142734944820404,-0.008690196275711059,9.747027834381775,7.692575454711914E-4,0.06290367893122809,0.02708611786365509,0.04201759770512581,0.04235000163316727,-6.841791910119355E-4,0.0,1791183594228,0.28695002,8.995951,3.7410002,0.096265,9.294186,3.106262,0.226732,-0.28567,0.685472,0.0023375,0.04235,0.005775,
36391590083326,-0.07276520133018494,-0.010778412967920304,9.773466823766086,0.012702962756156927,0.06428766744308949,0.03970290422439575,0.04743384197354317,0.04977500066161156,-0.002091191941872239,0.0,1791183594238,0.29895002,9.04395,3.693,0.096339,9.291887,3.113132,0.169198,-0.278583,0.5972,0.0066,0.049775,5.5E-4,
36391600076338,-0.045647308230400085,-0.014379210025072097,9.797327319347549,0.027545914053916938,0.06412281409752037,0.0390350729227066,0.047790683805942535,0.05197500064969063,-0.001797970267944038,0.0,1791183594248,0.294,9.05805,3.7219503,0.096076,9.289721,3.119589,0.191009,-0.245292,0.581166,0.0055,0.051975,-0.0048125,
36391610069576,0.005766913294792175,-0.01531478837132454,9.818606995740323,0.028729182481765744,0.0636840426686753,0.037630632519721985,0.05650465190410614,0.06366249918937683,-0.002574759069830179,0.0,1791183594261,0.32505003,9.08895,3.70005,0.094959,9.287562,3.126049,0.216068,-0.200037,0.60583,0.0077,0.0636625,-0.0122375,
36391620062734,-0.025411859154701233,-0.01861594766378403,9.800317103239472,0.023009645938873294,0.062397681547906585,0.037896960973739624,0.05305590480566025,0.06366249918937683,-0.002677976619452238,0.0,1791183594268,0.246,9.09195,3.6499503,0.092732,9.28565,3.131794,0.196746,-0.202914,0.516288,0.0077,0.0636625,-0.0229625,
36391630055749,-0.03801347315311432,-0.028155819326639176,9.763545246878897,0.01574441194534302,0.04850132257810739,0.03521418571472168,0.039533235132694244,0.04977500066161156,-0.001628059078939259,0.0,1791183594278,0.16905001,9.05805,3.6400502,0.089847,9.283721,3.137589,0.111046,-0.21535,0.515281,0.0044,0.049775,-0.023924999,
36391640048890,-0.042531609535217285,-0.03692108616232872,9.753392328301471,0.017161956429481505,0.03147960624614245,0.02916746735572815,0.030838917940855026,0.03918749839067459,-0.001277592615224421,0.0,1791183594288,0.17595,9.06495,3.59505,0.087215,9.28177,3.143431,0.09213,-0.211005,0.487892,0.0034375,0.0391875,-0.0196625,
36391650042119,-0.05367386341094971,-0.042135785520076754,9.730979026604139,5.824297666549676E-4,0.02438507998150257,0.030772778391838073,0.017279002815485,0.025299999862909317,8.54818063089624E-5,0.0,1791183594300,0.08805001,9.06105,3.5470502,0.084773,9.279946,3.148874,0.046688,-0.194816,0.405834,-8.25E-4,0.0253,-0.0207625,
36391660035124,-0.10835926234722137,-0.047291210293769835,9.68589874957352,0.029938182234764098,0.026819879478334793,0.05359801352024078,-0.0018358889501541853,0.0030249999836087227,0.0018702385714277625,0.0,1791183594308,0.042000003,8.995951,3.58995,0.082544,9.277969,3.154759,-0.027697,-0.255088,0.414315,-0.0061875,0.003025,-0.0144375,
36391670028275,-0.128482386469841,-0.05053218156099319,9.696536334470549,0.047126001119613646,0.032015631864067924,0.07421211898326874,-0.006845101714134216,-0.005499999970197678,0.0033312279265373945,0.0,1791183594318,0.094950005,8.982,3.6520503,0.081431,9.275676,3.161524,0.002146,-0.29589,0.469798,-0.01045,-0.0055,-0.0048125,
36391680021509,-0.10608278214931488,-0.05275822281837463,9.710974488633292,0.0481230765581131,0.03417976137933841,0.08782598078250885,0.0011736946180462837,8.249999955296516E-4,0.003747471608221531,0.0,1791183594328,0.13605,8.986051,3.6790502,0.081492,9.273121,3.169001,0.057152,-0.286152,0.507811,-0.01155,8.25E-4,0.0015125,
36391690014518,-0.1059991866350174,-0.055087116360664365,9.676959639562307,0.06148442327976227,0.036087982955916774,0.10051949620246887,0.010281624272465706,0.009349999949336052,0.004809449426829815,0.0,1791183594338,0.162,8.955001,3.66405,0.082041,9.27047,3.17674,0.09491,-0.285896,0.504861,-0.014712499,0.00935,0.0048125,
36391700007658,-0.12525518238544464,-0.05774325877428055,9.726236216829449,0.07720512747764588,0.039076058186267866,0.11483575999736786,0.013952215202152729,0.01251249946653843,0.004481450188905001,0.0,1791183594348,0.13095,8.977051,3.7410002,0.082663,9.267777,3.184566,0.060769,-0.309539,0.513795,-0.013612499,0.0125124995,0.006875,
36391710000650,-0.0701911598443985,-0.057446498423814774,9.764030670943669,0.06930517852306366,0.03895768005914301,0.10720213949680328,0.016121400520205498,0.01251249946653843,0.002129562897607684,0.0,1791183594359,0.19800001,9.003,3.7740002,0.083732,9.265076,3.192395,0.081247,-0.275713,0.58258,-0.0061875,0.0125124995,0.0133375,
36391719993870,-0.015114247798919678,-0.05507435575127602,9.81420995524995,0.049314326047897344,0.04000461015705467,0.08452851176261902,0.012521008029580116,0.009349999949336052,-0.0016985461115837097,0.0,1791183594368,0.15300001,9.04905,3.79605,0.085254,9.262735,3.19914,0.103667,-0.218306,0.583017,0.0055,0.00935,0.0111375,
36391729987023,0.01365719735622406,-0.05267670005559921,9.841946602014437,0.03141304850578308,0.042535094026515355,0.06058051586151123,-0.0057711307890713215,-0.00976249948143959,-0.006250757724046707,0.0,1791183594379,0.21705002,9.07995,3.7909503,0.086918,9.260818,3.204635,0.113975,-0.197235,0.608647,0.0193875,-0.0097624995,0.0100375,
36391739980025,-0.021556630730628967,-0.05327046811580658,9.780912147495862,0.012919226288795469,0.04201040641026362,0.04369200468063354,-0.01809338852763176,-0.021449999883770943,-0.01012118998914957,0.0,1791183594389,0.23205002,9.05805,3.6829503,0.089193,9.259476,3.208456,0.123671,-0.207864,0.530606,0.031075,-0.02145,0.005775,
36391749973174,-7.255673408508301E-4,-0.05085742324590683,9.80076273343529,0.034811931848526,0.04354517374907552,0.018786081671714784,-0.018230319023132324,-0.020487500354647636,-0.009436989203095436,0.0,1791183594399,0.25800002,9.130051,3.55395,0.091356,9.25853,3.211123,0.140661,-0.147063,0.417806,0.028875,-0.0204875,0.0026125,
36391759966393,-0.037768617272377014,-0.05268308967351913,9.763442304200117,0.06191054582595825,0.04217103690386617,0.012301573157310485,-0.016970369964838028,-0.01718750037252903,-0.004263032227754593,0.0,1791183594408,0.19305001,9.109051,3.5089502,0.093004,9.257681,3.21352,0.14859,-0.136637,0.274151,0.012925,-0.0171875,-0.0026125,
36391769959388,-0.05495571345090866,-0.054226864501833914,9.719097259882508,0.06755611449480056,0.04165771401768782,0.020269866287708282,-0.02518313378095627,-0.025712499395012856,0.0013293144293129444,0.0,1791183594418,0.162,9.03705,3.5730002,0.094041,9.256222,3.217688,0.073333,-0.171092,0.322655,-0.004125,-0.0257125,-0.0026125,
36391779952549,-0.0879012867808342,-0.056050561368465424,9.730117222460677,0.05993793308734894,0.042288837043391835,0.040581563115119935,-0.01290951482951641,-0.014024999924004078,0.005532791838049889,0.0,1791183594428,0.22905001,9.04905,3.5689502,0.095376,9.254126,3.223672,0.115094,-0.212091,0.338219,-0.016775,-0.014025,0.0015125,
36391789945768,-0.08793749660253525,-0.05680917613208294,9.713279243563976,0.060978023707866674,0.042715806378922125,0.05385773628950119,0.0056951651349663734,0.007287499960511923,0.010808929800987244,0.0,1791183594438,0.23595001,9.03195,3.5659502,0.096373,9.251555,3.231017,0.147616,-0.211915,0.335662,-0.0328625,0.0072875,-0.0026125,
36391799938768,-0.08367221802473068,-0.05871042162179947,9.781849693098213,0.036755073070526126,0.04302182197935104,0.07044706642627716,0.02250216156244278,0.026399999856948853,0.015351736918091774,0.0,1791183594448,0.186,9.05805,3.6880503,0.096182,9.24848,3.239811,0.107106,-0.216022,0.360387,-0.0466125,0.0264,-0.0059125,
36391809931928,0.009175390005111694,-0.05853999778628349,9.857914759706594,0.023470246791839608,0.04328285985530725,0.061058264970779416,0.031230704858899117,0.036024998873472214,0.016121964901685715,0.0,1791183594460,0.16395001,9.07695,3.8419502,0.095061,9.244857,3.250167,0.084284,-0.176486,0.527202,-0.0488125,0.036025,-0.006875,
36391819925173,0.05640439689159393,-0.05444918498396874,9.884936152884695,0.02179427295923233,0.049622658360915145,0.0387862429022789,0.04093768820166588,0.04661250114440918,0.012597685679793358,0.0,1791183594468,0.15495001,9.06795,3.93195,0.093318,9.241076,3.260953,0.071662,-0.167916,0.643309,-0.0380875,0.0466125,-0.007975,
36391829918178,0.038384050130844116,-0.05062930881977081,9.825135518199243,0.030162829160690303,0.05352766214602554,0.013529175519943237,0.03479195013642311,0.04028749838471413,0.005513267125934362,0.0,1791183594479,0.052050002,9.04605,3.834,0.09123,9.237822,3.270219,0.023472,-0.181422,0.626859,-0.016775,0.0402875,-0.009075,
36391839911331,0.009533777832984924,-0.048026039451360705,9.807435096762903,0.02475116103887558,0.05510113262455455,0.005965079367160797,0.00982611533254385,0.01251249946653843,-4.675525415223092E-4,0.0,1791183594488,0.018000001,9.05595,3.765,0.089137,9.235524,3.276762,-0.067808,-0.171941,0.514972,0.0012375,0.0125124995,-0.0059125,
36391849904558,0.024121522903442383,-0.0441362701356411,9.824789699634229,0.039825400710105895,0.057268430684735215,0.02752382755279541,-0.016252130270004272,-0.01718750037252903,-0.004701078869402409,0.0,1791183594499,0.093,9.09405,3.7170002,0.088496,9.233876,3.281419,-0.043225,-0.139169,0.464825,0.014025,-0.0171875,-5.5E-4,
36391859897567,0.010290831327438354,-0.03820376545190811,9.782881308392172,0.04801678210496903,0.056447890780107896,0.027746915817260742,-0.03961800038814545,-0.04166249930858612,-0.006836149375885725,0.0,1791183594508,0.061950002,9.05805,3.69495,0.08937,9.232644,3.284855,0.003784,-0.137937,0.418294,0.02035,-0.0416625,-0.00165,
36391869890723,-0.08238037675619125,-0.035898664966225624,9.714962260852674,0.04057152420282364,0.053582815005796425,1.0038912296295167E-5,-0.06221028044819832,-0.06613750010728836,-0.010059548541903496,0.0,1791183594518,0.028050002,9.010051,3.6330001,0.090588,9.231801,3.287198,-0.054894,-0.213708,0.356095,0.029975,-0.0661375,-5.5E-4,
36391879883728,-0.11546696722507477,-0.03636787422001362,9.712732316069067,0.023077493906021117,0.05423249143825925,0.030780242383480073,-0.0697999820113182,-0.07686249911785126,-0.010363648645579815,0.0,1791183594528,0.093,9.03195,3.5710502,0.092724,9.231187,3.288857,-0.04027,-0.232248,0.308947,0.031075,-0.0768625,0.006875,
36391889876882,-0.09895840287208557,-0.036015835031867026,9.664167861367188,0.017968387901782984,0.05380048258544128,0.05247867852449417,-0.05870455503463745,-0.06613750010728836,-0.00747315026819706,0.0,1791183594538,0.12105001,9.003,3.5110502,0.09572,9.230619,3.290362,0.021376,-0.190979,0.240404,0.02255,-0.0661375,0.0100375,
36391899870101,-0.14831462502479553,-0.03716880716383457,9.643591371951638,0.025907643139362335,0.05590644361411702,0.08696590811014175,-0.04292137548327446,-0.04922499880194664,-0.0021166985388845205,0.0,1791183594548,0.14295001,8.998051,3.4660501,0.098553,9.2297,3.292859,0.049668,-0.228366,0.197206,0.0066,-0.049225,0.0100375,
36391909863098,-0.17948448657989502,-0.0426334735006094,9.618794013787213,0.08613472878932953,0.06366970787557402,0.12492097169160843,-0.030315084382891655,-0.0364375002682209,0.004011525772511959,0.0,1791183594559,0.15495001,8.977051,3.4510503,0.101225,9.228384,3.296469,0.058966,-0.239022,0.13374,-0.01155,-0.0364375,0.0122375,
36391919856255,-0.15930494666099548,-0.049843008443713185,9.688934608933689,0.12677671015262604,0.0681513062983741,0.14030588567256927,-0.019375547766685486,-0.025712499395012856,0.011561889201402664,0.0,1791183594568,0.15300001,8.994,3.6000001,0.103798,9.226189,3.302529,0.056394,-0.246403,0.213872,-0.033825,-0.0257125,0.0154,
36391929849485,-0.09341374039649963,-0.05519655533134937,9.730332383287603,0.14186031967401502,0.06715092488722732,0.13589524030685424,-0.008770624175667763,-0.015124999918043613,0.015243178233504295,0.0,1791183594578,0.16005,8.983951,3.7339501,0.106189,9.22305,3.311206,0.051609,-0.233688,0.372789,-0.04455,-0.015125,0.0176,
36391939842490,-0.04335646331310272,-0.05628654696047306,9.821662718493652,0.1522986799478531,0.06677189374318662,0.12477485239505767,-0.0014359783381223679,-0.006599999964237213,0.013821802102029324,0.0,1791183594588,0.19995001,9.030001,3.8580003,0.108304,9.219584,3.320777,0.068647,-0.21825,0.475746,-0.0402875,-0.0066,0.0154,
36391949835665,0.001069188117980957,-0.05619680918753147,9.813082058482498,0.12264500558376312,0.06684766739152832,0.09489808976650238,0.01551778707653284,0.013612499460577965,0.0112691018730402,0.0,1791183594599,0.19800001,9.0390005,3.8149502,0.109632,9.21613,3.33031,0.086473,-0.190855,0.528462,-0.0328625,0.013612499,0.009075,
36391959828880,-0.005797967314720154,-0.05459827668964863,9.773959181722285,0.06015074700117111,0.06764671152232425,0.06016078591346741,0.029433397576212883,0.030662499368190765,0.008647366426885128,0.0,1791183594608,0.15705001,9.04395,3.7030501,0.109697,9.213256,3.338245,0.076831,-0.15925,0.41997,-0.0253,0.0306625,0.0026125,
36391969821894,-0.08199803531169891,-0.05595039278268814,9.736369883255565,0.013919161260128023,0.06791008991623347,0.044699403643608096,0.03787805885076523,0.04124999791383743,0.010073050856590271,0.0,1791183594618,0.18795002,9.03405,3.62595,0.108818,9.210708,3.345301,0.089681,-0.197403,0.300386,-0.0295625,0.041249998,-0.00165,
36391979815060,-0.031892456114292145,-0.05314995124936104,9.766874050590207,0.020083531737327576,0.06768924636988007,0.032395146787166595,0.042577315121889114,0.04867500066757202,0.013318431563675404,0.0,1791183594628,0.22905001,9.06795,3.6210003,0.107428,9.208095,3.352533,0.12459,-0.132541,0.266819,-0.0391875,0.048675,-0.007975,
36391989808069,-0.025753550231456757,-0.05004075393080711,9.78038876752428,0.058091343939304346,0.06744765703868706,0.0288745641708374,0.0325491838157177,0.04235000163316727,0.015395342372357845,0.0,1791183594638,0.14805001,9.05595,3.6910503,0.105144,9.20524,3.360434,0.102932,-0.134475,0.290042,-0.0455125,0.04235,-0.0196625,
36391999801298,-0.009452968835830688,-0.04632979147136211,9.796267952685987,0.0939419761300087,0.06753687765749686,0.03097899556159973,0.019802775233983994,0.02956249937415123,0.014331885613501072,0.0,1791183594648,0.10695001,9.054001,3.7390501,0.101876,9.202123,3.369061,-0.003933,-0.148117,0.377183,-0.04235,0.0295625,-0.0218625,
36392009794445,-0.028918899595737457,-0.04823450595140457,9.760910515034977,0.10470270365476608,0.06647343533872486,0.035603182017803194,0.005644107237458229,0.0147124994546175,0.008484737947583199,0.0,1791183594659,0.08805001,9.02505,3.7170002,0.098974,9.199463,3.376409,0.006151,-0.162217,0.357864,-0.0253,0.014712499,-0.0229625,
36392019787445,-0.058045126497745514,-0.05395698212087154,9.743714680121599,0.10508264005184173,0.06199450206742051,0.030812600255012514,-0.0031667237635701895,0.003987499978393316,0.0041250912472605705,0.0,1791183594668,0.042000003,9.0390005,3.6379502,0.096334,9.197352,3.382223,-0.034304,-0.176865,0.313744,-0.0125124995,0.0039875,-0.0196625,
36392029780599,-0.10972298681735992,-0.061362333968281745,9.66730021340826,0.07839614599943161,0.05930959536810452,0.046378706395626065,-0.0015215061139315367,0.0030249999836087227,0.004587069619446993,0.0,1791183594678,0.042000003,8.989051,3.55695,0.094055,9.195653,3.386908,-0.065544,-0.189531,0.198925,-0.013612499,0.003025,-0.0122375,
36392039773827,-0.11674538254737854,-0.06767629198729992,9.712049676063174,0.030321016907691956,0.05813616092356981,0.06457707285881042,0.001004392746835947,0.0019249999895691872,0.008407915942370892,0.0,1791183594688,0.08805001,9.03405,3.5640001,0.092795,9.193819,3.391913,-0.04513,-0.180515,0.153219,-0.0243375,0.001925,-0.00165,
36392049766831,-0.07385925948619843,-0.07257533110678197,9.742875666458048,0.01729754507541656,0.05418839484664463,0.07745833098888397,0.004889879375696182,0.0030249999836087227,0.012174073606729507,0.0,1791183594698,0.064050004,9.05595,3.59295,0.092875,9.191652,3.397778,2.79E-4,-0.137646,0.159324,-0.034925,0.003025,0.006875,
36392059759987,-0.062478333711624146,-0.07621378935873509,9.762826375309173,0.03947081416845322,0.05084192346475317,0.08417021781206131,-0.0018994607962667942,-0.006599999964237213,0.012641663663089275,0.0,1791183594708,0.078,9.06495,3.624,0.093569,9.189228,3.404312,-0.007597,-0.14001,0.19828,-0.036025,-0.0066,0.0133375,
36392069753216,-0.010581530630588531,-0.07262384705245495,9.844146106917735,0.04228235185146331,0.05277775881102561,0.07467749863862991,-0.005201543681323528,-0.014024999924004078,0.01387412752956152,0.0,1791183594718,0.081,9.1060505,3.7390501,0.095619,9.18663,3.411261,-0.004858,-0.106288,0.255974,-0.0391875,-0.014025,0.023924999,
36392079746221,0.05033805966377258,-0.06433359570801259,9.922061589388033,0.013790725171566012,0.058146095618012046,0.04266528934240341,0.0021317526698112488,-0.00976249948143959,0.015114637091755867,0.0,1791183594728,0.186,9.127951,3.8850002,0.098638,9.183549,3.41946,0.035217,-0.088842,0.381851,-0.04235,-0.0097624995,0.03355,
36392089739372,0.1223120242357254,-0.05327007435262203,9.955404966568198,0.036125187575817105,0.07028835208972728,0.005146192014217376,0.0033740848302841187,-0.00976249948143959,0.011110876686871052,0.0,1791183594738,0.17895001,9.139951,3.9420002,0.102945,9.180365,3.427876,0.085977,-0.054533,0.493145,-0.0306625,-0.0097624995,0.0367125,
36392099732372,0.16676723957061768,-0.03751598112285137,9.944871079811199,0.0888746738433838,0.08161745298219683,0.053271491825580594,0.003973543643951416,-0.00976249948143959,0.004798756912350655,0.0,1791183594748,0.18405001,9.151951,3.8869503,0.107104,9.177727,3.434801,0.062665,-0.013587,0.510162,-0.0125124995,-0.0097624995,0.0378125,
36392109725592,0.11820825189352036,-0.022631344199180604,9.91318398334988,0.120221409201622,0.081514447954293,0.08940880894660949,0.0038387849926948547,-0.010862499475479126,2.013391349464655E-5,0.0,1791183594758,0.25995,9.156,3.7909503,0.111695,9.175868,3.439617,0.098775,-0.021306,0.390424,0.0012375,-0.0108624995,0.039875,
36392119718743,0.0632563978433609,-0.011503276973962783,9.861564550043674,0.15055510103702546,0.0771726821892823,0.10417639464139938,-0.00443577766418457,-0.0193875003606081,-0.0022413721308112144,0.0,1791183594768,0.30795002,9.12495,3.72705,0.117213,9.174566,3.442907,0.169871,-0.051129,0.310519,0.0077,-0.0193875,0.038775,
36392129711956,0.06428870558738708,-0.003618154674768448,9.87101095296874,0.17154359668493271,0.07645392568559824,0.10696652382612229,-0.013845153152942657,-0.027912499383091927,-0.0037729362957179546,0.0,1791183594778,0.23400001,9.156,3.6810002,0.122843,9.173594,3.4453,0.145088,-0.031003,0.260243,0.0119624995,-0.0279125,0.0345125,
36392139704971,0.04199036955833435,6.491869688034057E-4,9.892968973708978,0.16836052387952805,0.07649864550108268,0.09090219289064408,-0.017862029373645782,-0.03217500075697899,-0.0025970740243792534,0.0,1791183594788,0.20505,9.154051,3.7459502,0.127827,9.172742,3.447383,0.097008,-0.044516,0.234218,0.0086624995,-0.032175,0.0345125,
36392149698127,0.09586591273546219,0.005389023199677467,9.92870658752406,0.1608921453356743,0.07926461467289612,0.07672192752361298,-0.012837684713304043,-0.02681249938905239,-0.002244091359898448,0.0,1791183594798,0.24795002,9.166051,3.8080502,0.132588,9.171544,3.450395,0.08267,-0.02177,0.326974,0.0077,-0.0268125,0.0345125,
36392159691107,0.11049598455429077,0.011203720793128013,9.901324420828537,0.14985697269439696,0.08243291005151382,0.07517947405576705,0.0016190782189369202,-0.008662499487400055,-0.00417647510766983,0.0,1791183594807,0.22905001,9.148951,3.7789502,0.136714,9.170425,3.453207,0.13361,-0.008681,0.331345,0.012925,-0.0086624995,0.0270875,
36392169684336,0.09845371544361115,0.020226308330893516,9.898666105643763,0.12488422691822051,0.08160929655963596,0.08221893757581711,0.02335531637072563,0.015812499448657036,-0.0027150074020028114,0.0,1791183594818,0.22005,9.159,3.7480502,0.13923,9.169311,3.456064,0.08321,-0.017143,0.321305,0.0086624995,0.0158125,0.023924999,
36392179677490,0.10971808433532715,0.02730683535337448,9.866732946895784,0.08615862131118775,0.082912990781296,0.09130481332540512,0.04464799165725708,0.04028749838471413,-1.5488406643271446E-4,0.0,1791183594829,0.22905001,9.1369505,3.7170002,0.140513,9.168126,3.459152,0.084322,0.010377,0.27991,0.0012375,0.0402875,0.0196625,
36392189670492,0.0642741322517395,0.031808219477534296,9.855992998668345,0.04249007403850556,0.08235205162802006,0.09576156586408616,0.0625164732336998,0.06146249920129776,8.851696620695293E-4,0.0,1791183594838,0.21195,9.151951,3.6520503,0.140514,9.166862,3.4625,0.077138,-0.024271,0.243043,-0.001925,0.0614625,0.0143,
36392199663712,0.04436706379055977,0.03449922110885382,9.792492120867864,0.003947012871503827,0.08183752722948509,0.08546179607510566,0.07211587578058243,0.0742499977350235,0.003808859270066023,0.0,1791183594848,0.18105,9.12495,3.5490003,0.139271,9.165688,3.465659,0.075987,8.44E-4,0.120173,-0.01045,0.07425,0.007975,
36392209656861,-0.047373972833156586,0.03357646744698286,9.742075596495381,0.050288590043783186,0.08264742876426595,0.0538878045976162,0.06920858472585678,0.07218749821186066,0.00869671255350113,0.0,1791183594858,0.14295001,9.07695,3.5350502,0.137277,9.164326,3.469338,0.015732,-0.069619,0.049458,-0.0243375,0.0721875,0.005775,
36392219649870,-0.05944883078336716,0.03350628223270178,9.777425775235157,0.08465922847390175,0.0827257640464792,0.022307295352220535,0.05599982663989067,0.05623750016093254,0.013657912611961365,0.0,1791183594868,0.14805001,9.075001,3.6360002,0.135705,9.16238,3.474529,-0.021003,-0.096404,0.087362,-0.0380875,0.0562375,0.0111375,
36392229643096,0.024180077016353607,0.040201435424387456,9.855717821709927,0.08570249900221825,0.07600884613234,0.005199693888425827,0.03683986887335777,0.03492499887943268,0.014104502275586128,0.0,1791183594877,0.15495001,9.09195,3.801,0.135443,9.15987,3.481152,0.01996,-0.065163,0.238756,-0.0391875,0.034925,0.0133375,
36392239636249,0.0844666063785553,0.05026203487068415,9.846428423609842,0.067483738809824,0.06739795333359808,0.009238188713788986,0.01811295375227928,0.0147124994546175,0.00997297652065754,0.0,1791183594890,0.186,9.05595,3.8610003,0.136024,9.157245,3.488035,0.028956,-0.045778,0.356371,-0.0275,0.014712499,0.0133375,
36392249629249,0.025622129440307617,0.05523610431700945,9.85250773395503,0.0696902722120285,0.061463763373556114,0.0054892018437385556,6.686467677354813E-4,-0.004537499975413084,0.005054316949099302,0.0,1791183594899,0.19305001,9.04395,3.90405,0.137627,9.154884,3.494159,0.06566,-0.120032,0.383766,-0.013612499,-0.0045375,0.0143,
36392259622480,0.030011355876922607,0.059860588796436784,9.846900145870695,0.061252669990062715,0.055636213943918454,0.020966267585754393,-0.011125972494482994,-0.018287500366568565,-0.0013355464907363057,0.0,1791183594908,0.186,9.03195,3.9180002,0.139857,9.152967,3.49909,0.037094,-0.13248,0.429114,0.0044,-0.0182875,0.0165,
36392269615644,0.05033106356859207,0.06290621850639581,9.822633432898986,0.048382566869258875,0.0533155551857816,0.04292224645614624,-0.022794779390096664,-0.031075000762939453,-0.007818383164703846,0.0,1791183594918,0.24300002,9.030001,3.8580003,0.142631,9.151753,3.502154,0.055868,-0.095354,0.387742,0.02255,-0.031075,0.0165,
36392279608646,-0.0018848851323127747,0.060295071266591546,9.82588351189835,0.05805231183767319,0.05511557637874803,0.03770925402641297,-0.030672648921608925,-0.03849999979138374,-0.012041080743074417,0.0,1791183594927,0.294,9.04395,3.82995,0.146065,9.151188,3.50349,0.114683,-0.130701,0.33134,0.0342375,-0.0385,0.0133375,
36392289601805,0.025547869503498077,0.05545686352998018,9.854761325561757,0.05953628942370415,0.053687817837927365,0.02592550665140152,-0.03686730936169624,-0.042762499302625656,-0.0140537079423666,0.0,1791183594939,0.35805002,9.06495,3.8490002,0.149716,9.15096,3.50393,0.168493,-0.099349,0.323717,0.0396,-0.0427625,0.006875,
36392299595043,0.06599884480237961,0.050418443791568276,9.879226784385303,0.01988695487380028,0.047360878248613875,0.03400084972381592,-0.026724055409431458,-0.027912499383091927,-0.015348101034760475,0.0,1791183594948,0.39900002,9.11295,3.79395,0.152847,9.150843,3.504097,0.241976,-0.060924,0.333127,0.0427625,-0.0279125,-0.0037125,
36392309588034,0.017910011112689972,0.04540353175252676,9.773446397049586,0.009273285418748854,0.045177100962297115,0.03158058077096939,-0.009585323743522167,-0.0034374999813735485,-0.015202632173895836,0.0,1791183594958,0.32700002,9.07005,3.62595,0.153784,9.15108,3.503439,0.209915,-0.063555,0.206892,0.0416625,-0.0034375,-0.0196625,
36392319581190,-0.08882348239421844,0.037799537740647794,9.704763941580392,0.001450022310018539,0.053554253345365205,0.0037496715784072878,0.005613476037979126,0.01677500084042549,-0.01003853976726532,0.0,1791183594968,0.32700002,9.019951,3.5659502,0.152311,9.151379,3.502728,0.170686,-0.126103,0.073528,0.0268125,0.016775,-0.0292875,
36392329574185,-0.0936000794172287,0.029905098490417004,9.701192661710797,0.023831555992364882,0.060282211713781404,0.014593367278575898,0.0178141538053751,0.0317624993622303,-0.004003404174000025,0.0,1791183594977,0.29595003,8.998051,3.6139503,0.149908,9.151082,3.503606,0.180272,-0.140172,0.096592,0.0097624995,0.0317625,-0.03355,
36392339567408,-0.10856086015701294,0.022377537004649638,9.692601329898325,0.04690431505441666,0.06729501663237401,0.0414151132106781,0.038318026810884476,0.055137500166893005,1.424170914106071E-4,0.0,1791183594990,0.19095,8.983951,3.6330001,0.145827,9.150167,3.506162,0.098162,-0.170381,0.137131,-0.001925,0.0551375,-0.0367125,
36392349560547,-0.14659078419208527,0.010254702158272266,9.656717850841328,0.10489930659532548,0.07442542407580523,0.08393303900957108,0.055257875472307205,0.07218749821186066,0.0025230729952454567,0.0,1791183594998,0.14505,8.950951,3.6210003,0.140355,9.149016,3.509392,0.03899,-0.197961,0.105171,-0.0083875,0.0721875,-0.03355,
36392359553549,-0.14879253506660461,-0.0027097238227725027,9.628426293327747,0.16019579470157624,0.07831636391245991,0.11727354824542999,0.06946723908185959,0.08387500047683716,0.006079851184040308,0.0,1791183595007,0.049950004,8.934,3.58995,0.134666,9.14751,3.513534,-0.043905,-0.201243,0.110606,-0.017875,0.083875,-0.023924999,
36392369546782,-0.1946370154619217,-0.017364260368049146,9.603103280379317,0.1761455088853836,0.08513988258565308,0.13843625485897065,0.07763684540987015,0.08703749626874924,0.008962946012616158,0.0,1791183595018,-0.028050002,8.922001,3.5520003,0.128997,9.145844,3.518084,-0.134004,-0.223519,0.043806,-0.0253,0.087037496,-0.009075,
36392379539953,-0.20901542901992798,-0.0333009360358119,9.617541398374337,0.18744483143091203,0.08957585824805414,0.1615193247795105,0.0541839599609375,0.05623750016093254,0.010354684665799141,0.0,1791183595028,-0.0049500004,8.934,3.561,0.125215,9.144071,3.522825,-0.135011,-0.2409,0.048643,-0.0286,0.0562375,0.005775,
36392389533187,-0.15618948638439178,-0.04432411696761847,9.67137209890651,0.2050458997488022,0.09045086487034217,0.17104505002498627,0.021875903010368347,0.015812499448657036,0.010161880403757095,0.0,1791183595039,0.069000006,8.95995,3.6400502,0.12429,9.142287,3.527486,-0.13648,-0.193626,0.072712,-0.0275,0.0158125,0.0207625,
36392399526187,-0.09540218114852905,-0.051312579214572905,9.734695477872561,0.1923879101872444,0.08871111827739105,0.160807329416275,-2.843085676431656E-4,-0.010862499475479126,0.009136207401752472,0.0,1791183595047,0.15300001,8.967,3.7860003,0.126322,9.140293,3.532579,-0.025984,-0.172478,0.182541,-0.0243375,-0.0108624995,0.0281875,
36392409519333,0.007737845182418823,-0.04855698831379414,9.873498698831671,0.1332509249448776,0.08964173818525979,0.12950125336647034,-0.014021013863384724,-0.025712499395012856,0.006430632434785366,0.0,1791183595058,0.22905001,9.063001,3.9109502,0.130018,9.138019,3.53832,0.06848,-0.12232,0.334817,-0.016775,-0.0257125,0.0281875,
36392419512323,0.06716186553239822,-0.04222645349800587,9.876351909283194,0.06254810988903046,0.09305469681308665,0.07714147716760636,-0.021754246205091476,-0.03217500075697899,6.105476059019566E-4,0.0,1791183595069,0.22395001,9.06105,3.9229503,0.134075,9.136086,3.543158,0.100336,-0.079687,0.38744,-8.25E-4,-0.032175,0.022824999,
36392429505552,0.03575252741575241,-0.04164783097803593,9.786422456298034,0.013227227330207827,0.09350072996198772,0.028187885880470276,-0.020477131009101868,-0.029012499377131462,-0.004828452132642269,0.0,1791183595078,0.23595001,9.018001,3.79395,0.137511,9.134756,3.546455,0.096901,-0.092721,0.333864,0.014025,-0.0290125,0.0176,
36392439498705,-0.06743810325860977,-0.04924306645989418,9.712985558669603,0.07349542975425721,0.08900962444099231,0.010437609255313873,-0.009361626580357552,-0.016224998980760574,-0.004458922427147627,0.0,1791183595089,0.30795002,9.019951,3.58995,0.140407,9.134057,3.54814,0.096399,-0.13033,0.145432,0.012925,-0.016224999,0.0154,
36392449491936,-0.12710469961166382,-0.056879407912492755,9.68769929447375,0.10049543529748917,0.08881036735843446,0.016778112947940828,0.004069633781909943,-2.749999985098839E-4,0.002818736247718334,0.0,1791183595099,0.37500003,9.03405,3.4780502,0.143431,9.133406,3.549691,0.193931,-0.132072,-0.018924,-0.0072875,-2.75E-4,0.0122375,
36392459484854,-0.13354304432868958,-0.06505712792277336,9.69157841964179,0.09340196400880815,0.0879589203071859,0.04503429085016251,0.016825316473841667,0.01677500084042549,0.013481518253684044,0.0,1791183595107,0.37800002,9.03195,3.4939501,0.146032,9.132084,3.552987,0.279916,-0.113991,-0.086863,-0.0369875,0.016775,0.0048125,
36392469478090,-0.12797176837921143,-0.07397226952016353,9.665256413908375,0.07745830714702606,0.08479081774761997,0.08406101763248444,0.0378204844892025,0.04235000163316727,0.025045642629265785,0.0,1791183595117,0.32205,8.998051,3.5140502,0.146662,9.129567,3.559425,0.202672,-0.121051,-0.050206,-0.069025,0.04235,-0.00165,
36392479471097,-0.168563112616539,-0.08230618089437484,9.637074553295475,0.04612090438604355,0.08548432912532544,0.12492414563894272,0.06400556117296219,0.07218749821186066,0.03588234260678291,0.0,1791183595127,0.28395,8.938951,3.58995,0.145284,9.125864,3.568966,0.156165,-0.167626,-0.040593,-0.098725,0.0721875,-0.0048125,
36392489464340,-0.11817662417888641,-0.08949240557849407,9.711264852490638,0.02573547959327696,0.08208920956195366,0.13507184982299805,0.06783407181501389,0.07535000145435333,0.04228417947888374,0.0,1791183595138,0.26700002,8.971951,3.7069502,0.143295,9.121074,3.581269,0.095905,-0.155653,0.069207,-0.115775,0.07535,-0.00165,
36392499457480,-0.08644163608551025,-0.09711442962288856,9.714215875597604,0.002562016248703003,0.07397386016997898,0.12693923711776733,0.06284014880657196,0.06998749822378159,0.0420391708612442,0.0,1791183595148,0.23895001,8.94795,3.7740002,0.141528,9.115834,3.594658,0.100066,-0.155202,0.15398,-0.114675,0.0699875,-0.00165,
36392509450459,-0.10708282887935638,-0.10336407162249088,9.68084660928724,0.044505716860294336,0.06911230942592353,0.1216471940279007,0.05861127749085426,0.06572499871253967,0.03944553807377815,0.0,1791183595158,0.25995,8.91195,3.7720501,0.139712,9.110687,3.607751,0.109065,-0.18118,0.162435,-0.10725,0.065725,-0.0026125,
36392519443696,-0.14911100268363953,-0.10637844763696194,9.651970612736141,0.09768715500831604,0.0697244039038584,0.12587504088878632,0.0560956671833992,0.0625625029206276,0.03726031631231308,0.0,1791183595168,0.32505003,8.863951,3.8059502,0.138379,9.105726,3.620307,0.143917,-0.23368,0.17861,-0.100925,0.0625625,-0.00165,
36392529436857,-0.13079378008842468,-0.10823813267052174,9.697197846696186,0.10788356512784958,0.06985467170878519,0.11832117438316345,0.06180770695209503,0.06902500241994858,0.03497746214270592,0.0,1791183595177,0.31095,8.91195,3.8100002,0.13743,9.100869,3.632533,0.192749,-0.216852,0.183143,-0.0944625,0.069025,-0.0026125,
36392539429856,-0.11107271909713745,-0.10836372561752797,9.727961504859245,0.10012228041887283,0.06985739704793466,0.11690039336681365,0.05796101316809654,0.06476250290870667,0.03155680373311043,0.0,1791183595188,0.23595001,8.962951,3.7740002,0.1362,9.096475,3.643572,0.155673,-0.176545,0.136191,-0.084975,0.0647625,-0.0026125,
36392549423081,-0.03866008296608925,-0.10296719055622816,9.755027873047833,0.062309791892766954,0.070857588310821,0.10734408274292946,0.03711850941181183,0.043449997901916504,0.026827316731214523,0.0,1791183595197,0.19800001,8.983951,3.79605,0.134619,9.092699,3.653037,0.078245,-0.098548,0.138697,-0.0721875,0.043449998,-0.0059125,
36392559416245,-0.044710513204336166,-0.09776308946311474,9.775975229855177,0.010808601975440979,0.07112249338899637,0.09486961960792542,0.014582042582333088,0.018975000828504562,0.022110359743237495,0.0,1791183595207,0.13605,9.02505,3.7549503,0.133373,9.089471,3.661113,0.019636,-0.09532,0.116256,-0.0594,0.018975,-0.0059125,
36392569409247,-0.026347730308771133,-0.08934862520545721,9.800357715167578,0.054607180505990977,0.06908969283735832,0.07031696513295174,8.882733527570963E-5,0.0019249999895691872,0.01983027718961239,0.0,1791183595217,0.16005,9.04395,3.7720501,0.132614,9.086675,3.668077,-0.005941,-0.068582,0.099715,-0.053075,0.001925,-0.0026125,
36392579402476,-0.0019401013851165771,-0.07899485882371664,9.787411126110923,0.09052562043070794,0.06581937771763617,0.04454622939229012,-0.02469891868531704,-0.023649999871850014,0.015385030768811703,0.0,1791183595228,0.19995001,9.030001,3.7699502,0.132955,9.084207,3.674167,0.04639,-0.049354,0.115172,-0.041249998,-0.02365,-0.0059125,
36392589395640,-0.01137116551399231,-0.07175394278019667,9.772123229535048,0.10233331844210625,0.06488803654463872,0.024605918675661087,-0.055250801146030426,-0.05555000156164169,0.009785334579646587,0.0,1791183595237,0.17595,9.01305,3.7720501,0.134397,9.082378,3.678634,0.042554,-0.045132,0.079581,-0.0264,-0.05555,-0.009075,
36392599388664,-0.049213092774152756,-0.06944448836147785,9.784995652170098,0.09493067339062691,0.06482720296264295,0.02671652063727379,-0.07238470762968063,-0.07466249912977219,0.0054173097014427185,0.0,1791183595248,0.09,8.994,3.8530502,0.136098,9.080892,3.682245,-0.019001,-0.101106,0.119066,-0.014712499,-0.0746625,-0.007975,
36392609381909,0.002527281641960144,-0.06970501653850078,9.820306452461965,0.10860607922077178,0.06452627001722636,0.017268961668014525,-0.058098483830690384,-0.06407500058412552,0.0035690891090780497,0.0,1791183595258,0.14805001,8.991,3.9469502,0.138134,9.079329,3.686016,-0.016249,-0.087572,0.223034,-0.00935,-0.064075,0.0037125,
36392619375063,0.041978321969509125,-0.07096419371664524,9.841209155951283,0.11471742317080497,0.06204099636364903,0.0036037512123584746,-0.02581796608865261,-0.035337500274181366,0.0021829106844961643,0.0,1791183595268,0.28695002,9.07005,3.8080502,0.14122,9.077804,3.689657,0.062067,-0.047739,0.226576,-0.0050875,-0.0353375,0.0185625,
36392629368075,0.0178312286734581,-0.07186025865375996,9.797748961283176,0.11725090816617012,0.06060602874988703,3.505147993564606E-4,0.0012332843616604805,-0.008662499487400055,0.00472217658534646,0.0,1791183595277,0.31995,9.08205,3.66195,0.145256,9.076797,3.691974,0.177742,0.00115,0.037511,-0.01155,-0.0086624995,0.025024999,
36392639361213,-0.07010342925786972,-0.07199352495372295,9.738542283692496,0.09594814479351044,0.06059908836347951,0.011395937949419021,0.01030456367880106,-2.749999985098839E-4,0.012421239167451859,0.0,1791183595288,0.21495001,9.022051,3.66,0.149101,9.075518,3.694966,0.114041,-0.052637,-0.061248,-0.0317625,-2.75E-4,0.0292875,
36392649354447,-0.10615992546081543,-0.07094628624618053,9.693555085916328,0.07208431512117386,0.05981352580433519,0.022785304486751555,0.028174977749586105,0.011549999937415123,0.019965460523962975,0.0,1791183595297,0.21495001,8.92695,3.7720501,0.152949,9.07323,3.700418,0.026396,-0.126963,0.029067,-0.050875,0.01155,0.0484,
36392659347437,0.011714473366737366,-0.06368341036140919,9.917560098219955,0.04936909899115563,0.060585731454654394,0.020947866141796112,0.04766595736145973,0.025299999862909317,0.022769583389163017,0.0,1791183595308,0.31800002,9.10095,3.9280503,0.158594,9.070181,3.707652,0.094972,-0.044905,0.136754,-0.0573375,0.0253,0.06655,
36392669340664,0.19232288002967834,-0.0476686779409647,10.024791874011177,0.05366727486252785,0.08052621056870925,0.009121045470237732,0.06475408375263214,0.04441250115633011,0.017554307356476784,0.0,1791183595317,0.49005002,9.154051,4.05705,0.164905,9.067023,3.715088,0.268225,0.080355,0.299307,-0.043449998,0.0444125,0.06435,
36392679333822,0.24962854385375977,-0.026759095117449762,10.061644222260417,0.08008642718195916,0.09866999859262902,0.055480508506298064,0.049823153764009476,0.03492499887943268,0.002375649055466056,0.0,1791183595328,0.51900005,9.148951,4.155,0.171255,9.06481,3.720202,0.348067,0.099328,0.399538,-0.004125,0.034925,0.0463375,
36392689326844,0.21968519687652588,-0.009866004064679145,10.02591746967273,0.14015475437045097,0.10986024448720237,0.11343823373317719,0.03941541910171509,0.030662499368190765,-0.015753023326396942,0.0,1791183595337,0.504,9.115951,4.143,0.176117,9.064092,3.721723,0.319262,0.052163,0.436324,0.0427625,0.0306625,0.0270875,
36392699320068,0.2140619158744812,0.005159173533320427,9.984984798868329,0.19475156366825105,0.11856437767044922,0.17748260200023652,0.05790931358933449,0.05719999969005585,-0.03223814442753792,0.0,1791183595347,0.49500003,9.17595,3.9060001,0.178403,9.065182,3.718962,0.319371,0.077408,0.360077,0.0853875,0.0572,0.009075,
36392709313222,0.16265331208705902,0.018645980581641197,9.961357887554053,0.21127412095665932,0.120357486334175,0.20767036974430084,0.0733141303062439,0.08167500048875809,-0.04097253084182739,0.0,1791183595358,0.492,9.228001,3.7189503,0.177868,9.0684,3.711133,0.329483,0.141227,0.06863,0.1076625,0.081675,-0.0111375,
36392719306197,0.12390733510255814,0.03229689747095108,9.82156298569293,0.19363674595952032,0.11595884766083096,0.1939872607588768,0.07551829516887665,0.09129999577999115,-0.04398990049958229,0.0,1791183595369,0.45705003,9.121051,3.6139503,0.175195,9.072482,3.701271,0.313003,0.129963,-0.005304,0.1150875,0.091299996,-0.0292875,
36392729299357,-0.03702153265476227,0.0369855098426342,9.675256279935688,0.1480531834065914,0.11106212246878662,0.1366572454571724,0.10618820786476135,0.12966249883174896,-0.042880695313215256,0.0,1791183595377,0.36795002,9.03405,3.4440002,0.169785,9.076868,3.690749,0.263345,0.025021,-0.171953,0.111925,0.1296625,-0.042075,
36392739292576,-0.1822093278169632,0.03342867940664292,9.576869427676547,0.07906364500522614,0.11674074220045517,0.05627834051847458,0.1326059252023697,0.15936249494552612,-0.035173449665308,0.0,1791183595387,0.27195,9.01305,3.2260501,0.161522,9.081079,3.680748,0.130351,-0.065381,-0.329546,0.0917125,0.1593625,-0.0441375,
36392749285578,-0.2839285731315613,0.02116525489836931,9.5140083911732,0.022371891140937808,0.13510718379402065,0.04331975728273392,0.10944554209709167,0.13062499463558197,-0.02252325415611267,0.0,1791183595398,0.24105,8.986051,3.11595,0.1538,9.084924,3.671585,0.092583,-0.088378,-0.543044,0.0587125,0.130625,-0.03355,
36392759278732,-0.28920432925224304,0.008940564095973968,9.511894034676395,0.14281233102083207,0.15067843622984756,0.13369128555059434,0.09128409624099731,0.10518749803304672,-0.008289470337331295,0.0,1791183595407,0.25995,8.998051,3.0730503,0.148772,9.087586,3.665195,0.088034,-0.086253,-0.56299,0.02145,0.1051875,-0.0176,
36392769271956,-0.30412977933883667,-0.004948538355529308,9.504570787392916,0.2747792169451713,0.16537676012240532,0.21929870843887328,0.11510565876960754,0.12966249883174896,0.004119643941521645,0.0,1791183595418,0.17595,9.007951,3.0270002,0.14369,9.089203,3.661383,0.076356,-0.075899,-0.62861,-0.01155,0.1296625,-0.0133375,
36392779264956,-0.30652403831481934,-0.020177735202014446,9.488878425055972,0.3866374433040619,0.17794516269381738,0.2731992095708847,0.11863884329795837,0.13062499463558197,0.018937502056360245,0.0,1791183595427,0.13095,8.95995,3.1210501,0.138187,9.089451,3.660984,0.007639,-0.07854,-0.625817,-0.050875,0.130625,-0.0048125,
36392789258102,-0.3082755208015442,-0.03502295296639204,9.538978833781577,0.4758950501680374,0.18865375521187347,0.2984124481678009,0.09476802498102188,0.0976250022649765,0.03038245625793934,0.0,1791183595438,0.18105,8.922001,3.3700502,0.134858,9.08784,3.665103,-0.012972,-0.158332,-0.431217,-0.0807125,0.097625,0.0143,
36392799251317,-0.1776133030653,-0.041442963480949405,9.720393360254613,0.4848197638988495,0.19119507110334388,0.27714939415454865,0.07333708554506302,0.06902500241994858,0.03341682627797127,0.0,1791183595447,0.32505003,9.03405,3.5730002,0.134983,9.084874,3.672444,0.106612,-0.119454,-0.182379,-0.0881375,0.069025,0.0281875,
36392809244309,0.020951753482222557,-0.04052173988893628,9.898331970039852,0.40910543836653235,0.19144892915277306,0.21511817760765553,0.03731674328446388,0.0317624993622303,0.02982380799949169,0.0,1791183595458,0.38700002,9.08895,3.90105,0.137652,9.081497,3.680688,0.23323,0.001238,0.044008,-0.0785125,0.0317625,0.023924999,
36392819237556,0.18371939659118652,-0.03343468615785241,10.098149743278531,0.2542055878788233,0.1969171335798862,0.11754834242165088,-1.7095007933676243E-4,-0.0034374999813735485,0.020126620307564735,0.0,1791183595468,0.53595,9.151951,4.2340503,0.141382,9.07785,3.689529,0.325268,0.040798,0.375144,-0.053075,-0.0034375,0.0100375,
36392829230686,0.359325110912323,-0.016359992045909166,10.255418937205073,0.040656853094697,0.21463088204370315,0.01562148742377758,-0.006953460164368153,-0.0012374999932944775,0.00897074956446886,0.0,1791183595478,0.70095,9.17595,4.5259504,0.144747,9.0743,3.698125,0.472737,0.099415,0.689765,-0.0243375,-0.0012375,-0.0144375,
36392839223686,0.4230436086654663,0.008297359850257636,10.25000006572642,0.2052050705999136,0.23445210361194227,0.16188531331717967,0.024448571726679802,0.045512501150369644,-0.007201626431196928,0.0,1791183595487,0.81600004,9.139951,4.56705,0.145312,9.071413,3.705175,0.587094,0.080754,0.898193,0.0171875,0.0455125,-0.0474375,
36392849216922,0.34257304668426514,0.030734008457511664,10.11081074208851,0.39961386881768707,0.24371371303174116,0.2659225832670927,0.0026868395507335663,0.038087498396635056,-0.028348371386528015,0.0,1791183595497,0.67905,9.00105,4.5550504,0.142951,9.070331,3.707922,0.76902,0.007616,0.857139,0.0715,0.0380875,-0.088825,
36392859210057,0.16885629296302795,0.03859109943732619,9.851116288804091,0.514802199602127,0.24550038936659643,0.2955034911632538,0.08942671865224838,0.14451250433921814,-0.04958134517073631,0.0,1791183595507,0.56895,8.94795,4.0810504,0.132672,9.071573,3.705261,0.412986,-0.096576,0.668265,0.126775,0.1445125,-0.121825,
36392869203049,-0.13194780051708221,0.022377565409988164,9.486441183699277,0.5055692613124847,0.24551998960405047,0.23237005174160003,0.12216010689735413,0.18713749945163727,-0.06513601541519165,0.0,1791183595518,1.28505,8.710951,3.5299501,0.117695,9.076302,3.694172,0.463876,-0.175525,0.066438,0.1683,0.1871375,-0.141075,
36392879196222,-0.6000564098358154,-0.020106682274490594,9.164272595266809,0.3389061957597732,0.2743432272003248,0.04049374759197235,0.01955103874206543,0.10188750177621841,-0.07114490866661072,0.0,1791183595528,1.04805,8.2900505,3.76305,0.110591,9.082005,3.680354,1.560342,-0.686405,0.049131,0.1832875,0.1018875,-0.20487499,
36392889189451,-0.660346508026123,-0.06410826751962304,9.209118171072838,0.10096511840820313,0.3015765429624619,0.17618427574634551,-9.412318468093872E-4,0.08071249723434448,-0.0789017453789711,0.0,1791183595537,0.45705003,8.72595,2.90805,0.095581,9.088447,3.664835,0.517115,-0.630598,-0.215471,0.2055625,0.0807125,-0.2080375,
