timestampNs,vertAccel,smoothedVert,accelMag,zDiff,stdevZ,zThreshDiff,yaw,roll,pitch,speedMps,speedAgeMs,rawAccelX,rawAccelY,rawAccelZ,gravUnitX,gravUnitY,gravUnitZ,linAccelX,linAccelY,linAccelZ,gyroX,gyroY,gyroZ,label
36502112526453,-0.1617024689912796,-0.1617024689912796,9.730509051102638,0.0,0.0,0.1617024689912796,0.26357564330101013,0.27857500314712524,-0.13015852868556976,0.0,1791183704761,-0.37995002,9.03405,3.59505,-0.188467,8.834863,4.236712,-0.26665,0.185624,-0.772982,0.2992,0.278575,0.042075,
36502122520686,-0.08300304412841797,-0.12235275655984879,9.748860808450775,0.0,0.0,0.12235275655984879,0.3378416895866394,0.3605250120162964,-0.09140562266111374,0.0,1791183704773,-0.41895002,8.941051,3.86295,-0.199435,8.847273,4.210227,-0.181461,0.1373,-0.490318,0.210925,0.360525,0.038775,
36502132515059,-0.056536003947257996,-0.10041383902231853,9.823944664359518,0.0,0.04466428981182439,0.10041383902231853,0.325945109128952,0.35103750228881836,-0.07578248530626297,0.0,1791183704780,-0.55005,8.86005,4.20795,-0.212345,8.856134,4.19092,-0.269108,0.011122,-0.169341,0.175725,0.3510375,0.0292875,
36502142509199,0.0679156482219696,-0.05833146721124649,10.006531318358515,0.0,0.08251637498116304,0.05833146721124649,0.24613532423973083,0.26372501254081726,-0.08275765180587769,0.0,1791183704790,-0.60795003,8.934,4.46595,-0.22361,8.86365,4.174411,-0.372764,-0.01794,0.177566,0.192775,0.263725,0.0281875,
36502152503414,0.2396889328956604,0.0012726128101348878,10.05837522097944,0.0,0.14020608807325904,0.0012726128101348878,0.16476896405220032,0.17008750140666962,-0.10301094502210617,0.0,1791183704800,-0.61695004,8.983951,4.4809504,-0.230336,8.872191,4.155864,-0.401952,0.088439,0.354131,0.2407625,0.1700875,0.038775,
36502162497575,0.1616908311843872,0.02800898253917694,9.854736468289447,0.0,0.14126437369501757,0.06595127284526825,0.1367272585630417,0.13392500579357147,-0.12295029312372208,0.0,1791183704811,-0.591,8.922001,4.143,-0.233396,8.883129,4.13226,-0.360585,0.08229,0.186198,0.28861248,0.133925,0.0526625,
36502172491960,-0.08660085499286652,0.011636148606027876,9.616869416922116,0.0,0.13679633802261223,0.06523171067237854,0.15001051127910614,0.14024999737739563,-0.13058510422706604,0.0,1791183704820,-0.63195,8.778001,3.8770502,-0.23447,8.896189,4.104005,-0.282896,-0.036113,-0.144676,0.307725,0.14025,0.071775,
36502182486107,-0.35475999116897583,-0.03416336886584759,9.327058200197282,0.0,0.17623068387469748,0.0055869132280349735,0.20777444541454315,0.19346250593662262,-0.12759263813495636,0.0,1791183704831,-0.771,8.536051,3.6790502,-0.236461,8.909563,4.074772,-0.503566,-0.269754,-0.292613,0.3014,0.1934625,0.0941875,
36502192480329,-0.5815548896789551,-0.09498464895619287,9.204701325292513,0.0,0.23916578526276175,0.12430719435214996,0.31513142585754395,0.29452499747276306,-0.11838163435459137,0.0,1791183704844,-0.63900006,8.47395,3.5370002,-0.240247,8.9225,4.046145,-0.468654,-0.426342,-0.496224,0.2789875,0.294525,0.13035,
36502202474717,-0.5215277075767517,-0.13763895481824875,9.378460234113723,0.11484805345535276,0.2604894505224395,0.27655052244663236,0.3844369947910309,0.3562625050544739,-0.11100989580154419,0.0,1791183704850,-0.47595003,8.63895,3.6190503,-0.242466,8.934758,4.018865,-0.310813,-0.383535,-0.43782,0.260975,0.3562625,0.16115,
36502212468871,-0.3522641956806183,-0.15715034035119144,9.475207220847777,0.2569887712597847,0.2559161610816551,0.3793415278196335,0.37288108468055725,0.34031251072883606,-0.10438317060470581,0.0,1791183704862,-0.58395004,8.694,3.7219503,-0.24231,8.94615,3.993459,-0.248719,-0.251275,-0.316646,0.2459875,0.3403125,0.1676125,
36502222463104,-0.31246277689933777,-0.17009304339687029,9.549371353526418,0.32410007317860917,0.24875283695726746,0.4245139122009277,0.34112054109573364,0.2956250011920929,-0.10346860438585281,0.0,1791183704870,-0.74700004,8.71395,3.834,-0.240496,8.956737,3.969766,-0.454041,-0.276227,-0.175637,0.243925,0.295625,0.1898875,
36502232457274,-0.2354038953781128,-0.17511695508773512,9.588600089450997,0.34231122583150864,0.2396268057056757,0.4006426930427551,0.32494568824768066,0.2657875120639801,-0.11070849746465683,0.0,1791183704880,-0.60495,8.75205,3.8700001,-0.235207,8.967515,3.945679,-0.437782,-0.219967,-0.110848,0.2619375,0.2657875,0.218625,
36502242451657,-0.2502613067626953,-0.1804844087788037,9.556801200468652,0.3356565892696381,0.2317197226216656,0.3343839764595032,0.29739609360694885,0.22756250202655792,-0.12092737853527069,0.0,1791183704891,-0.55305004,8.754001,3.79395,-0.225265,8.979136,3.919743,-0.328014,-0.241166,-0.092095,0.28861248,0.2275625,0.2388375,
36502252445877,-0.24933533370494843,-0.18507447044054667,9.528884526236292,0.3458967745304108,0.2245203536131145,0.27994550168514254,0.2543657720088959,0.1732500046491623,-0.12775138020515442,0.0,1791183704901,-0.59595,8.766001,3.6880503,-0.211666,8.991663,3.891682,-0.391891,-0.227355,-0.123889,0.307725,0.17325,0.2569875,
36502262440023,-0.27717840671539307,-0.19083096645772457,9.500023068847907,0.330160054564476,0.21853114436696405,0.26492834389209746,0.23612380027770996,0.14767499268054962,-0.1300225704908371,0.0,1791183704911,-0.54300004,8.77305,3.6040502,-0.19551,9.004948,3.8617,-0.36974,-0.21191,-0.227982,0.31625,0.147675,0.270875,
36502272434406,-0.33502936363220215,-0.1993132251150468,9.474520797862068,0.2750285744667053,0.21470415028979117,0.26944166123867036,0.20432797074317932,0.10944999754428864,-0.1270083785057068,0.0,1791183704921,-0.46395,8.800051,3.4800003,-0.176648,9.018299,3.831329,-0.321564,-0.239626,-0.307745,0.3119875,0.10945,0.2794,
36502282428545,-0.3190704584121704,-0.20596640474266475,9.540619611367712,0.1618677794933319,0.21045042371072029,0.28617497384548185,0.1647775024175644,0.06572499871253967,-0.11640238016843796,0.0,1791183704933,-0.29895002,8.89305,3.4420502,-0.154883,9.03108,3.802053,-0.240378,-0.206918,-0.340718,0.28861248,0.065725,0.2803625,
36502292422768,-0.31096136569976807,-0.2114924553193544,8.925827856304197,0.02176446318626407,0.20617475845840197,0.29831498563289643,0.14817273616790771,0.052937500178813934,-0.10042127966880798,0.0,1791183704940,0.22905001,8.397,3.0180001,-0.131962,9.042619,3.775396,-0.114859,-0.170573,-0.402647,0.25135,0.0529375,0.2666125,
36502302417156,-0.5984051823616028,-0.23083809167146682,9.465231241409919,0.011212572455406189,0.2179299170504286,0.3681289553642273,0.09880869090557098,-0.006599999964237213,-0.07919558882713318,0.0,1791183704951,-0.282,8.907001,3.1900501,-0.102042,9.0526,3.752337,0.338849,-0.455886,-0.453808,0.1992375,-0.0066,0.2794,
36502312411305,-0.17886251211166382,-0.23169609382748604,9.811268805232809,0.07604813575744629,0.2176896848848538,0.3484657764434814,0.13242347538471222,0.02419999986886978,-0.05910559743642807,0.0,1791183704961,-0.29895002,9.319051,3.0540001,-0.076909,9.061234,3.732039,-0.31117,0.090933,-0.696871,0.1491875,0.0242,0.29205,
36502322405478,0.02592521905899048,-0.22624968066811563,9.554145020339066,0.12436783313751221,0.22264790899577633,0.2762748599052429,0.1618252545595169,0.06792499870061874,-0.03579273819923401,0.0,1791183704971,0.18405001,9.121051,2.838,-0.053688,9.068137,3.715644,-0.059057,0.294719,-0.651746,0.0906125,0.067925,0.26235,
36502332399710,-0.9572685956954956,-0.2712863102555275,8.218058708356097,0.06953051090240475,0.26985753552325076,0.40391448736190794,0.06214005500078201,-0.012924999929964542,-0.008688575588166714,0.0,1791183704981,-0.273,7.9189506,2.17995,-0.029239,9.073847,3.701957,0.493495,-0.460374,-1.40181,0.02145,-0.012925,0.19635,
36502342393864,-1.790470838546753,-0.3642056345939636,8.759803740922916,0.41987088024616237,0.41693197498080453,0.6998163819313049,-0.05204533785581589,-0.15771250426769257,0.053926944732666016,0.0,1791183704991,-0.87600005,8.244,2.8290002,-0.009496,9.074068,3.701515,-0.852634,-1.425459,-1.248138,-0.1434125,-0.1577125,0.2484625,
36502352388259,-0.8956085443496704,-0.4209705084562302,9.373994076131558,0.494328710436821,0.4080380387285759,0.7592570543289184,0.01837732642889023,-0.12691250443458557,0.1043587252497673,0.0,1791183705002,-0.97200006,8.742001,3.2410502,0.017323,9.067046,3.718654,-1.08775,-0.635533,-0.805591,-0.27335,-0.1269125,0.35915,
36502362382483,0.11022443324327469,-0.4235438283532858,10.290228656099142,0.4319980040192604,0.40450229979931795,0.7014396652579308,0.08803357183933258,-0.089649997651577,0.11914446949958801,0.0,1791183705010,0.00405,9.475051,4.0140004,0.054568,9.05631,3.744368,-0.5863,0.126982,-0.010094,-0.30525,-0.08965,0.45168748,
36502372376639,0.8460541367530823,-0.37691107876598834,10.980025833334219,0.25123890787363057,0.4861737533990592,0.5374138817191124,0.12907427549362183,-0.031075000762939453,0.09951427578926086,0.0,1791183705021,0.78900003,9.922951,4.63395,0.09893,9.045443,3.769643,0.401238,0.688515,0.536845,-0.247775,-0.031075,0.416625,
36502382371004,1.3525505065917969,-0.2915455538779497,11.166932835335295,0.22286492437124253,0.6153088499948994,0.0754500612616539,0.12271067500114441,0.01251249946653843,0.05212558060884476,0.0,1791183705032,0.73395,9.82905,5.2489505,0.13663,9.037011,3.78864,0.732245,0.955521,1.193013,-0.1243,0.0125124995,0.29205,
36502392365151,1.154190182685852,-0.20475830025970937,10.777592759194798,0.8816110983490943,0.686567748840379,0.513482142984867,0.14457109570503235,0.08387500047683716,-0.01299329660832882,0.0,1791183705040,0.47100002,9.457951,5.1460505,0.158422,9.032885,3.797619,0.437514,0.614882,1.497674,0.0407,0.083875,0.171875,
36502402359389,0.7227498292922974,-0.1425444234162569,10.43787913836732,1.185619594156742,0.7109860272357729,0.8371538177132607,0.1665061116218567,0.13392500579357147,-0.07245341688394547,0.0,1791183705051,0.16005,9.324,4.689,0.16819,9.035143,3.791821,0.128471,0.313348,1.115611,0.1918125,0.133925,0.1027125,
36502412353772,0.1458689570426941,-0.11763776578009129,9.467430345522565,1.1205575823783875,0.71192751322544,0.8442827224731445,0.13338185846805573,0.11371249705553055,-0.11787443608045578,0.0,1791183705061,-1.18005,8.27805,4.44,0.168783,9.042853,3.773371,-0.559257,-0.158836,0.784508,0.308825,0.1137125,0.0600875,
36502422347920,-0.41638797521591187,-0.12283402569591999,9.693483242363795,0.9957087874412537,0.7137075928587719,0.5917943000793457,0.08110815286636353,0.008249999955296516,-0.161034494638443,0.0,1791183705070,-0.62700003,8.733001,4.1599503,0.168486,9.054489,3.745378,-1.327499,-0.682831,0.620965,0.4291375,0.00825,0.172975,
36502432342151,0.19654430449008942,-0.10123661570250989,10.3113314466571,1.0604094415903091,0.7165044362022096,0.36059305965900423,0.11373022943735123,0.026399999856948853,-0.1679963916540146,0.0,1791183705081,0.13095,9.34605,4.35405,0.184294,9.069437,3.708284,-0.184513,0.020481,0.478493,0.454575,0.0264,0.2134,
36502442336316,0.6789798736572266,-0.054774556681513785,10.463240992711187,1.0248080521821976,0.735218576176594,0.2655509978532791,0.16472887992858887,0.08813749998807907,-0.17030452191829681,0.0,1791183705091,-0.45000002,9.52005,4.3180504,0.199568,9.084222,3.671114,-0.321891,0.419893,0.790997,0.4653,0.0881375,0.19635,
36502452330701,0.48613113164901733,-0.018001233413815498,10.208876101633672,0.9196669235825539,0.7429201375899064,0.2182272583246231,0.1689407229423523,0.08167500048875809,-0.18288375437259674,0.0,1791183705101,-0.37605003,9.475051,3.7819502,0.211114,9.10099,3.628693,-0.759606,0.381577,0.400067,0.506825,0.081675,0.221925,
36502462324925,0.3143334984779358,0.011574361845850945,10.029807313231204,0.7893340483307838,0.7437871290528564,0.25192016661167144,0.17952683568000793,0.09350000321865082,-0.175475612282753,0.0,1791183705111,0.093,9.465,3.31695,0.226127,9.118949,3.582409,-0.305354,0.346858,-0.003758,0.4940375,0.0935,0.221925,
36502472319100,0.11966918408870697,0.0343092892318964,9.807850097457823,0.4345816597342491,0.7397837074614877,0.35913159847259524,0.15778040885925293,0.08703749626874924,-0.1538241058588028,0.0,1791183705120,0.094950005,9.34305,2.982,0.240919,9.136264,3.537042,-0.138187,0.286448,-0.398925,0.438625,0.087037496,0.1824625,
36502482313263,-0.08696138858795166,0.04591474272310734,9.722355719068178,0.21105168312788003,0.7359597229722715,0.302430459856987,0.1314859390258789,0.0625625029206276,-0.13023655116558075,0.0,1791183705131,0.061950002,9.22605,3.0660002,0.254942,9.151608,3.496158,-0.183335,0.096327,-0.482538,0.3779875,0.0625625,0.1772375,
36502492307639,-0.12714283168315887,0.0551056694239378,9.66536816026166,0.6959478989243508,0.7325855984583772,0.14120591878890992,0.1343274563550949,0.06146249920129776,-0.11543440818786621,0.0,1791183705141,0.049950004,9.166051,3.0660002,0.26988,9.164815,3.460253,-0.243763,0.020871,-0.396356,0.341825,0.0614625,0.1909875,
36502502301863,-0.1734803020954132,0.07635191343724727,9.635860524768857,0.8349990904331207,0.7193670911521076,0.009283632040023804,0.11489362269639969,0.04235000163316727,-0.10437577217817307,0.0,1791183705151,0.034950003,9.135,3.0660002,0.285781,9.176638,3.427488,-0.178261,-0.041229,-0.370773,0.3141875,0.04235,0.188925,
36502512296247,-0.21107947826385498,0.07474106512963771,9.547786090702854,0.6875932633876801,0.7199725946844943,0.09579896330833435,0.07199220359325409,0.0030249999836087227,-0.09877845644950867,0.0,1791183705161,-0.124050006,9.05805,3.01605,0.300397,9.187657,3.39657,-0.358077,-0.083374,-0.351826,0.3003,0.003025,0.172975,
36502522290405,-0.32132092118263245,0.05737875811755657,9.425226743786853,0.5445900440216065,0.7251090903447859,0.18399698436260223,-0.02485724538564682,-0.09597499668598175,-0.10419565439224243,0.0,1791183705171,-0.27705002,8.910001,3.0610502,0.314795,9.198834,3.364873,-0.535281,-0.199895,-0.339282,0.31845,-0.095975,0.1601875,
36502532284559,-0.369966059923172,0.08674388490617276,9.524464204113855,0.5061489164829254,0.6946773346487223,0.2405979186296463,-0.15191829204559326,-0.22907499969005585,-0.12156639993190765,0.0,1791183705180,-0.15105,8.92695,3.31695,0.331339,9.210904,3.330087,-0.614074,-0.312521,-0.163239,0.372625,-0.229075,0.1494625,
36502542278788,-0.23231063783168793,0.164651894941926,9.640161726313739,0.4798587381839752,0.5526300523618616,0.2616314798593521,-0.22019702196121216,-0.28971248865127563,-0.14196288585662842,0.0,1791183705191,0.010950001,8.994,3.4699502,0.349629,9.224055,3.291591,-0.361819,-0.270606,0.105099,0.4343625,-0.2897125,0.1101375,
36502552273172,-0.16081789135932922,0.20139142759144307,9.58409420324091,0.5110191643238067,0.5031293080785274,0.2590989977121353,-0.27536749839782715,-0.3312374949455261,-0.16170786321163177,0.0,1791183705201,-0.31605002,8.757,3.8820002,0.364731,9.238581,3.24894,-0.400863,-0.256401,0.289009,0.4940375,-0.3312375,0.055825,
36502562267338,-0.16683773696422577,0.18753831908106805,9.632735107012973,0.6093822479248048,0.5092261352981815,0.2502506494522095,-0.3128996193408966,-0.3876124918460846,-0.19953960180282593,0.0,1791183705211,0.094950005,8.806951,3.90105,0.380727,9.254964,3.200106,-0.388129,-0.3901,0.663454,0.6216375,-0.3876125,0.088825,
36502572261583,-0.08172905445098877,0.1411491595208645,9.815217091530629,0.5047627359628677,0.4889809756649541,0.20233227610588073,-0.2936849594116211,-0.37908750772476196,-0.2218860238790512,0.0,1791183705220,0.61200005,9.288,3.114,0.403735,9.274483,3.14022,-0.016093,-0.230053,0.426459,0.7068875,-0.3790875,0.1122,
36502582255739,0.02012622356414795,0.07452794536948204,9.877690677448816,0.26551973819732666,0.402519160729476,0.12431381940841675,-0.25096991658210754,-0.31735000014305115,-0.19762644171714783,0.0,1791183705231,0.79395,9.609,2.1460502,0.426277,9.295523,3.074341,0.279793,0.160708,-0.460553,0.6397875,-0.31735,0.0708125,
36502592250124,-0.002660512924194336,0.01668541058897972,9.830068424209319,0.08766742646694184,0.31731733563558473,0.07838379442691804,-0.27551528811454773,-0.3119874894618988,-0.14413683116436005,0.0,1791183705240,0.78000003,9.616051,1.88505,0.443011,9.314239,3.01475,0.334885,0.331134,-1.080916,0.4684625,-0.3119875,-5.5E-4,
36502602244337,-0.11793440580368042,-0.025348801165819168,9.619924256592824,0.025991865992546076,0.2736844773043515,0.06980709731578827,-0.23900137841701508,-0.24392500519752502,-0.08858127892017365,0.0,1791183705251,0.70305,9.34605,2.1679502,0.451975,9.327576,2.971876,0.371411,0.195693,-1.059589,0.28215,-0.243925,-0.06545,
36502612238507,-0.2630710005760193,-0.045795799046754834,9.523711122684496,0.09494323432445526,0.27539958163246503,0.08905375003814697,-0.1442326158285141,-0.13007499277591705,-0.05231214314699173,0.0,1791183705260,0.65805006,9.16395,2.5080001,0.4528,9.335252,2.94755,0.191021,-0.111258,-0.551634,0.159775,-0.130075,-0.092125,
36502622232910,-0.30438295006752014,-0.04019554778933525,9.474200920417847,0.10701338946819305,0.2688680055918755,0.13358452916145325,-0.040310002863407135,-0.015124999918043613,-0.030128823593258858,0.0,1791183705271,0.63600004,9.06495,2.6800501,0.449038,9.339578,2.934397,0.185205,-0.218534,-0.34934,0.0853875,-0.015125,-0.09955,
36502632227078,-0.33058056235313416,-0.06655179113149642,9.433426612140025,0.05790559351444241,0.2702022165326152,0.20372588634490968,0.06173812597990036,0.09556250274181366,-0.013586271554231644,0.0,1791183705281,0.54795,8.991,2.802,0.441375,9.341489,2.929465,0.154561,-0.311425,-0.136112,0.029975,0.0955625,-0.1027125,
36502642221316,-0.4246422052383423,-0.12173289507627487,9.331027444626278,0.029023227095603954,0.2204197079668744,0.28812222480773925,0.1409744918346405,0.18067499995231628,-7.669434417039156E-4,0.0,1791183705290,0.52095,8.955001,2.56995,0.430079,9.341928,2.929746,0.079666,-0.386084,-0.201037,-0.0125124995,0.180675,-0.1027125,
36502652215469,-0.4751005172729492,-0.1697944775223732,9.349823757823494,0.10930479764938356,0.1845086231710901,0.35955544710159304,0.16996890306472778,0.2147749960422516,0.014821380376815796,0.0,1791183705301,0.48105,9.02505,2.39505,0.417289,9.341775,2.932083,0.099639,-0.342836,-0.509831,-0.0647625,0.214775,-0.106975,
36502662209854,-0.4441012144088745,-0.2077162131667137,9.338404999356717,0.19342921376228334,0.15699868925558041,0.39576148986816406,0.19793584942817688,0.25093749165534973,0.02938239648938179,0.0,1791183705310,0.423,9.018001,2.388,0.402296,9.34046,2.938367,0.107449,-0.298425,-0.54724,-0.114675,0.2509375,-0.121825,
36502672204054,-0.4703485667705536,-0.23721710070967675,9.364745762918444,0.304640793800354,0.14787837503610152,0.42895461320877076,0.2191040962934494,0.2796750068664551,0.040321219712495804,0.0,1791183705321,0.16905001,9.063001,2.352,0.383249,9.338146,2.948253,-0.127289,-0.305688,-0.578673,-0.1519375,0.279675,-0.137775,
36502682198229,-0.43582451343536377,-0.25466025695204736,9.366699540918848,0.3716196089982986,0.14969020132206842,0.45000340342521666,0.1983264684677124,0.2605625092983246,0.04900064691901207,0.0,1791183705331,0.09,9.04905,2.4169502,0.361969,9.335157,2.960383,-0.213747,-0.259604,-0.597986,-0.1797125,0.2605625,-0.1431375,
36502692192618,-0.42532017827033997,-0.2695691242814064,9.49560419806109,0.38033190071582795,0.15108966806719418,0.4501389980316162,0.1471552550792694,0.2073500007390976,0.057344693690538406,0.0,1791183705340,0.10005,9.075001,2.7930002,0.341315,9.331076,2.975665,-0.284073,-0.284253,-0.476799,-0.20515,0.20735,-0.1420375,
36502702186852,-0.20119380950927734,-0.2709547996520996,9.648680483576095,0.30630390644073485,0.150327222406578,0.3953576564788818,0.13000574707984924,0.1891999989748001,0.05673299357295036,0.0,1791183705352,0.13800001,9.087001,3.2410502,0.322547,9.325331,2.995692,-0.157567,-0.240201,0.106512,-0.2008875,0.1892,-0.1420375,
36502712180998,-0.08439213037490845,-0.2646204322576523,9.844076355177053,0.1898313105106354,0.15530350401395712,0.32341583967208865,0.1283358633518219,0.18713749945163727,0.04424207657575607,0.0,1791183705360,0.058950003,9.16395,3.59505,0.303436,9.31955,3.015612,-0.191127,-0.210477,0.395443,-0.1584,0.1871375,-0.14533749,
36502722175247,0.11218040436506271,-0.24294536598026753,10.00233510501361,0.003184159100055678,0.1748930133328558,0.20691004544496536,0.13297198712825775,0.18809999525547028,0.026231195777654648,0.0,1791183705370,-0.040050004,9.19995,3.9250503,0.283944,9.31457,3.032844,-0.274587,-0.112124,0.732554,-0.0977625,0.1881,-0.138875,
36502732169401,0.20280368626117706,-0.21430687867105008,10.071930522229172,0.20893781930208205,0.1972189169463891,0.0791844055056572,0.14289641380310059,0.19139999151229858,0.005226206034421921,0.0,1791183705381,-0.081,9.228001,4.0350003,0.26478,9.310843,3.045997,-0.353584,-0.096426,0.977974,-0.0275,0.19139999,-0.122925,
36502742163631,0.22716876864433289,-0.19133290834724903,10.055142981737111,0.4108688309788704,0.21930875149090368,0.05131338387727737,0.155178964138031,0.19456249475479126,-0.01516693364828825,0.0,1791183705390,-0.07395,9.27105,3.8920503,0.24776,9.309124,3.052678,-0.331776,-0.0564,0.928198,0.0407,0.1945625,-0.09845,
36502752158016,0.182052344083786,-0.17418939657509327,9.934386288612941,0.5237241044640542,0.23393737945907156,0.12796261459589003,0.17710211873054504,0.21051250398159027,-0.03047482669353485,0.0,1791183705401,-0.10305001,9.279,3.5470502,0.232637,9.309614,3.052371,-0.278345,-0.025765,0.684297,0.0917125,0.2105125,-0.0804375,
36502762152146,0.09825997799634933,-0.1609345108270645,9.891699062387568,0.5934476494789124,0.24137053724978766,0.1644930362701416,0.18923160433769226,0.21793749928474426,-0.036247141659259796,0.0,1791183705411,-0.17400001,9.349951,3.2239501,0.218117,9.311987,3.046203,-0.347623,0.012562,0.302604,0.111925,0.2179375,-0.06545,
36502772146290,0.09115976840257645,-0.15229006968438624,9.895683098180022,0.610292312502861,0.24708077819735472,0.16028890907764434,0.17177961766719818,0.19456249475479126,-0.03342730179429054,0.0,1791183705420,-0.18900001,9.39105,3.114,0.205148,9.31508,3.037634,-0.384932,0.066931,0.114848,0.104499996,0.1945625,-0.0495,
36502782140524,0.06029792129993439,-0.15028148479759693,9.857478656685853,0.581926754117012,0.2486326413165058,0.1317877560853958,0.1560501754283905,0.17531250417232513,-0.027186444029211998,0.0,1791183705431,-0.17895001,9.40305,2.9530501,0.193867,9.317911,3.029679,-0.383228,0.066493,0.015064,0.0853875,0.1753125,-0.039875,
36502792134912,0.03024670109152794,-0.14863612409681082,9.84698340354553,0.4877609990537166,0.2497106462375304,0.09240334257483482,0.116849884390831,0.13282500207424164,-0.020409399643540382,0.0,1791183705440,-0.15105,9.456,2.74305,0.184429,9.320661,3.021797,-0.349848,0.097263,-0.18056,0.064075,0.132825,-0.034649998,
36502802129055,0.03583647310733795,-0.1409475801512599,9.861078723793801,0.38657600805163383,0.25288469767270827,0.06316016837954522,0.05764014273881912,0.07218749821186066,-0.010878604836761951,0.0,1791183705452,-0.09105001,9.492001,2.67105,0.177226,9.323008,3.014982,-0.289972,0.140406,-0.300638,0.0331375,0.0721875,-0.0378125,
36502812123276,0.04839690774679184,-0.12537418473511935,9.821287470591715,0.26009759977459906,0.2544700374037899,0.053187554329633714,0.003882337361574173,0.017875000834465027,-0.0031222007237374783,0.0,1791183705460,-0.060000002,9.448951,2.6779501,0.171875,9.324723,3.009982,-0.231949,0.172209,-0.362675,0.0077,0.017875,-0.043175,
36502822117663,-0.011853203177452087,-0.11074769739061593,9.753536948322909,0.11176936551928521,0.2521571128555501,0.032584960013628005,-0.03036123514175415,-0.016224998980760574,4.394305287860334E-4,0.0,1791183705470,-0.08595,9.325951,2.8549502,0.167304,9.325766,3.007014,-0.239349,0.075399,-0.259151,-0.004125,-0.016224999,-0.0484,
36502832111809,-0.06396352499723434,-0.09741684552282096,9.72951980201119,0.04358071312308311,0.24718133316569588,0.00773267075419426,-0.017840726301074028,-0.006599999964237213,-0.0013464851072058082,0.0,1791183705480,-0.08595,9.219001,3.10905,0.163142,9.326134,3.006095,-0.266312,-0.051861,-0.033177,0.0023375,-0.0066,-0.0378125,
36502842106055,-0.05153116211295128,-0.0787612933665514,9.756793916733077,0.13658551648259162,0.23558869844363794,0.008622901886701584,0.03349917009472847,0.03918749839067459,-0.005827495362609625,0.0,1791183705491,-0.13605,9.22095,3.186,0.159775,9.326115,3.006341,-0.291675,-0.111698,0.194025,0.0182875,0.0391875,-0.0133375,
36502852100201,-0.011484380811452866,-0.05558048654347658,9.810426912608404,0.18258010894060137,0.21757011549661337,0.018087072670459746,0.08447987586259842,0.08387500047683716,-0.010621516034007072,0.0,1791183705503,-0.16305001,9.316951,3.0679502,0.15721,9.326602,3.004956,-0.303475,-0.047541,0.125978,0.0353375,0.083875,0.0133375,
36502862094586,0.03317279741168022,-0.031716785952448846,9.819682612028688,0.1814208038151264,0.19903195327107598,0.02113189473748207,0.10464238375425339,0.0976250022649765,-0.008598913438618183,0.0,1791183705510,-0.12195001,9.328951,3.0630002,0.15605,9.327432,3.002447,-0.316681,0.023454,0.051873,0.029975,0.097625,0.0367125,
36502872088733,0.018437819555401802,-0.007277466636151075,9.814012099236383,0.1468614462763071,0.17182060516642098,0.015073690190911293,0.11004110425710678,0.0976250022649765,-0.006026599556207657,0.0,1791183705520,-0.040050004,9.328951,3.04695,0.157247,9.327969,3.00071,-0.229293,0.001369,0.067976,0.02255,0.097625,0.054725,
36502882082960,0.04735742136836052,0.01688163010403514,9.859042967958061,0.08521284349262714,0.14108606730574214,0.007190499082207679,0.11497186869382858,0.10188750177621841,-0.003347576828673482,0.0,1791183705532,-0.024,9.38895,3.00795,0.159622,9.328311,2.999524,-0.190965,0.03694,0.050007,0.014025,0.1018875,0.058025,
36502892077348,0.08637551218271255,0.042466414626687765,9.899464215618076,0.028388334438204772,0.09856492887721127,0.034771833941340445,0.09189838916063309,0.07741250097751617,-0.0020083868876099586,0.0,1791183705540,-0.10005,9.427051,3.0199502,0.162558,9.328647,2.998318,-0.213055,0.09646,-0.006246,0.0097624995,0.0774125,0.0589875,
36502902071636,0.074944406747818,0.05627332543954253,9.869879084994583,0.0011299628764390932,0.08129354325951824,0.05205759145319462,0.0746162161231041,0.05719999969005585,-0.0015414922963827848,0.0,1791183705551,-0.15795001,9.37005,3.0970502,0.16593,9.328819,2.997604,-0.300224,0.062768,0.066293,0.0086624995,0.0572,0.06545,
36502912065869,0.030771777033805847,0.062031520809978244,9.818736724713153,0.01899242736399174,0.07495773000393753,0.05157738737761974,0.08151739835739136,0.060499999672174454,-0.004591790959239006,0.0,1791183705560,-0.15300001,9.313951,3.1039503,0.169868,9.328968,2.996918,-0.318527,0.002764,0.110075,0.0193875,0.0605,0.0771375,
36502922060023,-0.004213044419884682,0.05621184837073088,9.829446375067612,0.03931454382836819,0.07535558569261251,0.04704721458256245,0.08771917223930359,0.06572499871253967,-0.00903335865586996,0.0,1791183705570,-0.06705,9.35505,3.01605,0.174484,9.329531,2.994903,-0.253712,-0.024134,0.076176,0.0342375,0.065725,0.0803,
36502932054407,0.020899755880236626,0.04711665185168386,9.839977449983971,0.05037858337163925,0.06770251503714247,0.04175568148493767,0.08223532885313034,0.06146249920129776,-0.01201188936829567,0.0,1791183705580,-0.043050002,9.37395,2.9920502,0.179475,9.330702,2.990951,-0.220396,0.027366,-0.003668,0.0438625,0.0614625,0.075075,
36502942048645,-0.004539946094155312,0.03553121611475944,9.786587278308339,0.04165966250002384,0.054423250441620205,0.023572589829564096,0.07982712239027023,0.06146249920129776,-0.015343121252954006,0.0,1791183705591,-0.025950002,9.331051,2.9509501,0.183738,9.33219,2.986049,-0.239024,-4.56E-4,0.001233,0.054449998,0.0614625,0.06655,
36502952042801,-0.03592132776975632,0.024632532522082327,9.804536042240526,0.0225313376635313,0.04499955709660557,0.0013994429260492324,0.07008770108222961,0.055137500166893005,-0.01845609024167061,0.0,1791183705602,0.0139500005,9.35805,2.9250002,0.187214,9.334097,2.979864,-0.206587,-0.019124,-0.045253,0.064075,0.0551375,0.0537625,
36502962037185,0.054329581558704376,0.02243601270020008,9.851978184596282,0.02118469402194023,0.04234596957543435,0.006111003831028939,0.05241241306066513,0.04235000163316727,-0.01908300630748272,0.0,1791183705611,0.022950001,9.393001,2.97195,0.189845,9.336189,2.973139,-0.178093,0.072157,-0.036134,0.065175,0.04235,0.0356125,
36502972031405,0.029830938205122948,0.019369571190327405,9.849151080736954,0.005729301273822785,0.03937466942107977,0.012919800356030464,0.04297134652733803,0.03698749840259552,-0.01672821119427681,0.0,1791183705620,0.20805001,9.34095,3.11595,0.191565,9.337859,2.967777,-0.110381,0.010632,0.072178,0.056649998,0.0369875,0.0218625,
36502982025565,-0.1325095295906067,0.009729198645800352,9.898787620821482,0.05253389067947864,0.05026961686534493,0.017762056738138198,0.02013826183974743,0.02419999986886978,-0.017079366371035576,0.0,1791183705630,1.47195,8.87205,4.13595,0.196657,9.338355,2.965885,0.775169,-0.305897,0.473902,0.05555,0.0242,-0.0133375,
36502992019948,0.18511201441287994,0.01747246431186795,10.080532349426555,0.031889256089925766,0.06311881197077633,0.02016833536326885,-0.03133255988359451,0.013612499460577965,-0.046978190541267395,0.0,1791183705641,-0.012,9.298051,3.8940003,0.195578,9.338247,2.966299,0.414723,-0.219598,1.275545,0.144925,0.013612499,-0.155925,
36503002014112,-0.13339123129844666,0.009011079091578722,10.020576265539288,0.05090303272008896,0.07094730633691576,6.743546575307847E-4,0.06527289003133774,0.10092499852180481,-0.06787411123514175,0.0,1791183705652,-1.7740501,9.298051,3.288,0.174042,9.342484,2.954268,-1.220528,-0.266931,0.473548,0.21835,0.100925,-0.1155,
36503012008344,0.1766359508037567,0.015423031244426965,10.08740746561805,0.021911586076021193,0.07949685435246522,0.025135628506541254,0.07655031979084015,0.043449997901916504,-0.07694215327501297,0.0,1791183705660,-0.19395001,9.846001,2.18505,0.163247,9.350198,2.930383,-1.513796,0.242503,-0.098723,0.2630375,0.043449998,0.1027125,
36503022002488,0.2089880406856537,0.026465093437582254,9.933660513558916,0.01921136751770973,0.08963254827486945,0.0609670490026474,0.055632781237363815,0.03698749840259552,-0.035571448504924774,0.0,1791183705670,0.60300004,9.70005,2.055,0.172343,9.357826,2.905414,0.385286,0.524573,-1.007492,0.1236125,0.0369875,0.0611875,
36503031996866,-0.0478389635682106,0.02727132150903344,9.642155656816906,0.05432857237756252,0.08888493460265429,0.07790116220712662,0.019103333353996277,0.02956249937415123,0.0019380145240575075,0.0,1791183705680,0.034950003,9.23805,2.76195,0.174657,9.36034,2.89716,0.145946,0.103074,-0.503638,-0.0083875,0.0295625,-0.0303875,
36503041991025,-0.16850334405899048,0.021422712411731482,9.685476502306322,0.0057786475867033,0.09732532960955749,0.007178090512752533,-0.034876756370067596,-0.04166249930858612,-0.005742303561419249,0.0,1791183705690,-0.37605003,9.085051,3.3360002,0.174717,9.360217,2.897554,-0.40478,-0.255933,0.281264,0.02035,-0.0416625,0.0154,
36503051985263,-0.19842028617858887,0.012075917143374682,9.563025943914079,0.011938724294304849,0.10838478013106659,0.00582772046327591,0.0017538638785481453,-0.012924999929964542,-0.016560303047299385,0.0,1791183705701,-0.15495001,9.12495,2.8570502,0.17596,9.360537,2.896443,-0.499396,-0.284983,0.279981,0.0587125,-0.012925,0.0441375,
36503061979645,-0.2554585039615631,-0.0023556479252874853,9.565914643579127,0.10516641177237034,0.12286362317493964,0.09224661141633987,-0.00557812349870801,-0.010862499475479126,-0.003859533928334713,0.0,1791183705710,-0.0019500001,9.286051,2.29695,0.177675,9.361894,2.891952,-0.192259,-0.1379,-0.407451,0.014025,-0.0108624995,0.0154,
36503071973794,-0.2729111909866333,-0.01692309845238924,9.542372383123675,0.1708644010126591,0.13609429071192322,0.18862645775079728,-0.06499259173870087,-0.07369999587535858,0.011611360125243664,0.0,1791183705720,-0.16305001,9.21195,2.4840002,0.180683,9.362706,2.889135,-0.250334,-0.112376,-0.545892,-0.0380875,-0.073699996,0.0207625,
36503081968025,-0.2940019965171814,-0.03399106934666633,9.495263201773437,0.2580273997038603,0.1478593144179705,0.23785906434059143,-0.0737045407295227,-0.0906125009059906,0.023154575377702713,0.0,1791183705731,-0.11895001,9.144,2.5560002,0.185787,9.361677,2.89214,-0.346417,-0.202326,-0.319054,-0.07535,-0.0906125,0.0484,
36503091962181,-0.31069302558898926,-0.05384449623525143,9.526758822970145,0.26697135530412197,0.15675462108944302,0.2662970006465912,-0.04595004767179489,-0.059812501072883606,0.03927120566368103,0.0,1791183705741,0.18105,9.21195,2.42205,0.191812,9.359248,2.899603,-0.187243,-0.195109,-0.407919,-0.1296625,-0.0598125,0.0463375,
36503101956570,-0.23563337326049805,-0.06937338523566723,9.616094476937302,0.2988752465695143,0.15859979682595282,0.27373961806297303,-0.023354556411504745,-0.027912499383091927,0.06147995963692665,0.0,1791183705751,0.30795002,9.267,2.5489502,0.198114,9.355042,2.912727,0.069816,-0.102317,-0.468928,-0.20515,-0.0279125,0.025024999,
36503111950813,-0.11686664074659348,-0.0767553061246872,9.775617526774678,0.3069882944226265,0.1571964712926919,0.2460212454199791,-0.009302344173192978,-0.006599999964237213,0.07815705984830856,0.0,1791183705760,0.36795002,9.32205,2.9200501,0.202855,9.348493,2.933352,0.134508,-0.057461,-0.216614,-0.2605625,-0.0066,0.007975,
36503121944959,0.03924766182899475,-0.07458227081224322,9.896041387506564,0.2614906370639801,0.15847941174312116,0.18358947485685348,0.02296013943850994,0.030662499368190765,0.08281775563955307,0.0,1791183705770,0.29895002,9.291,3.3940501,0.205953,9.340035,2.95996,0.155352,-0.034639,0.228436,-0.2743125,0.0306625,-0.00165,
36503131939344,0.12044748663902283,-0.06960488427430392,9.943372787731247,0.10787766873836517,0.162901623727965,0.10069957822561264,0.04977468401193619,0.05939999967813492,0.07184923440217972,0.0,1791183705780,0.19095,9.252001,3.6379502,0.206774,9.331198,2.987643,0.075522,-0.052137,0.5527,-0.2360875,0.0594,-0.0059125,
36503141933588,0.129502534866333,-0.0629027602262795,9.964593691519244,0.006832745671272278,0.16811465270842788,0.012660466134548187,0.031489502638578415,0.04028749838471413,0.04974342882633209,0.0,1791183705790,0.0019500001,9.219001,3.7819502,0.205925,9.323701,3.011014,-0.107982,-0.099707,0.737625,-0.1626625,0.0402875,-0.0111375,
36503151927753,0.1125401183962822,-0.05547968791797757,9.860385975461995,0.14922084361314775,0.17236601971061258,0.05697423219680786,-0.008391473442316055,-0.0034374999813735485,0.024698613211512566,0.0,1791183705801,-0.08400001,9.18795,3.5779502,0.204306,9.318539,3.027064,-0.235649,-0.094545,0.671297,-0.0807125,-0.0034375,-0.0111375,
36503161922126,-0.05160856246948242,-0.06077659511938691,9.659152080009962,0.2586523056030273,0.17052810038946867,0.07002584785223007,-0.05522823706269264,-0.06187500059604645,0.003151196986436844,0.0,1791183705810,-0.10005,9.06495,3.3340502,0.205445,9.316268,3.033968,-0.255942,-0.178465,0.398635,-0.00935,-0.061875,0.0122375,
36503171916271,-0.21560662984848022,-0.07304847352206707,9.555297225763104,0.2569140538573265,0.17238725228642499,0.019054989516735076,-0.08045483380556107,-0.10023749619722366,-0.010949167422950268,0.0,1791183705822,-0.10005,9.003,3.1999502,0.210377,9.316065,3.034254,-0.351854,-0.295578,0.235544,0.0385,-0.100237496,0.0452375,
36503181910504,-0.21361671388149261,-0.07710383273661137,9.625718295620555,0.21853915005922317,0.1746771578167922,0.04775785058736801,-0.07718608528375626,-0.10339999943971634,-0.01540677435696125,0.0,1791183705830,0.105000004,9.118051,3.08295,0.218438,9.316909,3.031091,-0.230628,-0.253326,0.104632,0.054449998,-0.1034,0.06435,
36503191904867,-0.11481767147779465,-0.0921003170311451,9.729537329617726,0.17711772620677949,0.1640745991266468,0.09662189185619355,-0.05412311106920242,-0.08318749815225601,-0.013357539661228657,0.0,1791183705841,0.26295,9.23505,3.051,0.229179,9.318017,3.026884,-0.047439,-0.134724,0.046589,0.0490875,-0.0831875,0.0771375,
36503201899011,-0.020217658951878548,-0.08644163841381669,9.811458522591503,0.12284779809415342,0.16450398864906346,0.12317344732582569,-0.02386781945824623,-0.05444999784231186,-0.008401528000831604,0.0,1791183705851,0.33705002,9.31005,3.078,0.241463,9.318805,3.023507,0.055198,-0.03735,0.045178,0.0342375,-0.054449998,0.087725,
36503211893239,0.07184626162052155,-0.09168112287297844,9.862872583468537,0.08510699234902858,0.15756386689685842,0.0984824825078249,0.017506975680589676,-0.010862499475479126,-0.0030006607994437218,0.0,1791183705860,0.39900002,9.319051,3.2050502,0.253704,9.318947,3.022065,0.162667,0.031939,0.12084,0.0171875,-0.0108624995,0.088825,
36503221887632,0.04740342125296593,-0.09976035384461283,9.847655358116745,0.05481910593807697,0.14563044463085875,0.04588047228753567,0.07933785021305084,0.05623750016093254,8.90464405529201E-4,0.0,1791183705870,0.34395,9.286051,3.2599502,0.263925,9.318353,3.02302,0.140475,-0.022533,0.210865,0.0044,0.0562375,0.0834625,
36503231881794,0.02277315780520439,-0.09622974777594209,9.79712943060742,0.014057968184351921,0.14768782197466232,0.0013975020498037337,0.1418635994195938,0.12223749607801437,0.007517423015087843,0.0,1791183705881,0.23595001,9.279,3.1350002,0.270868,9.317103,3.026258,0.004245,-0.042831,0.205233,-0.016775,0.122237496,0.0845625,
36503241876040,-0.010571949183940887,-0.08833317803218961,9.811072871360107,0.03472758568823338,0.14783445549972019,0.022246646508574486,0.17266112565994263,0.1508374959230423,0.015536000952124596,0.0,1791183705890,0.17595,9.295051,3.1350002,0.276691,9.315517,3.030609,-0.06622,-0.031668,0.069201,-0.041249998,0.1508375,0.09845,
36503251870196,0.07611794769763947,-0.07460626633837819,9.910318374797434,0.02851208001375198,0.1497092121311765,0.041513767838478086,0.16858892142772675,0.1424500048160553,0.023650476709008217,0.0,1791183705900,0.20505,9.37005,3.2209501,0.283529,9.313011,3.03767,-0.094606,0.030692,0.160302,-0.065725,0.14245,0.113299996,
36503261864581,0.15096211433410645,-0.054285235423594716,10.014783754578403,0.038281948864459986,0.1513558126561141,0.057336938381195066,0.13526561856269836,0.10724999755620956,0.026189547032117844,0.0,1791183705910,0.26700002,9.42195,3.384,0.291903,9.309896,3.046411,-0.067067,0.079297,0.249723,-0.0732875,0.10725,0.1144,
36503271858810,0.22196805477142334,-0.02954127313569188,10.037118891170635,0.14000771567225456,0.15402028096966194,0.09224986508488656,0.09344667196273804,0.0668250024318695,0.020306643098592758,0.0,1791183705920,0.20805001,9.4129505,3.4780502,0.300717,9.306781,3.055062,-0.090246,0.111143,0.38233,-0.0551375,0.066825,0.1016125,
36503281852960,0.1929105818271637,-0.0051956442184746265,9.955671788334763,0.22289924174547196,0.1486835733389755,0.1262773498892784,0.06533411145210266,0.04028749838471413,0.009370647370815277,0.0,1791183705930,0.19095,9.34605,3.4249501,0.30882,9.304477,3.061267,-0.107926,0.07514,0.400068,-0.0210375,0.0402875,0.088825,
36503291847090,0.07532001286745071,0.014105007704347371,9.834040473521382,0.2666291896253824,0.13187871650417057,0.14345574229955674,0.05036378279328346,0.027499999850988388,-0.0022772112861275673,0.0,1791183705940,0.17400001,9.26895,3.28095,0.315881,9.303502,3.063502,-0.131747,-0.014864,0.29967,0.015125,0.0275,0.0760375,
36503301841497,-0.010916763916611671,0.02534083817154169,9.769090132306191,0.2245312824845314,0.11907389926808191,0.1260487999767065,0.03687575086951256,0.0147124994546175,-0.011745695024728775,0.0,1791183705951,0.126,9.291,3.01605,0.322358,9.303988,3.061364,-0.154983,-0.036898,0.093512,0.044825,0.014712499,0.0686125,
36503311835718,-0.04564587026834488,0.02890187669545412,9.75312275371321,0.1326076753437519,0.11578739040707504,0.08672720305621624,0.010931231081485748,-0.010862499475479126,-0.014890855178236961,0.0,1791183705960,0.12900001,9.307051,2.913,0.328338,9.305645,3.055679,-0.225606,-0.007431,-0.099521,0.054449998,-0.0108624995,0.0622875,
36503321829874,-0.10022827982902527,0.02192807961255312,9.644892304197326,0.020890434086322785,0.11910694368603071,0.022287936136126518,-0.0011437442153692245,-0.023649999871850014,-0.015496060252189636,0.0,1791183705970,0.25095,9.192,2.91,0.335159,9.307526,3.049208,-0.143842,-0.064378,-0.109808,0.056649998,-0.02365,0.0622875,
36503331824234,-0.1441899836063385,0.008696206100285053,9.645094013782154,0.0673788234591484,0.12208946893946282,0.04513217695057392,-0.009520325809717178,-0.031075000762939453,-0.015558653511106968,0.0,1791183705980,0.32505003,9.18,2.94105,0.342966,9.309333,3.042814,-0.04391,-0.111675,-0.11778,0.056649998,-0.031075,0.058025,
36503341818463,-0.1452707052230835,-0.005042455904185772,9.673334388031604,0.13076408840715886,0.12317739089570515,0.08925032056868076,0.003337208181619644,-0.01718750037252903,-0.012501445598900318,0.0,1791183705990,0.22005,9.17595,3.0540001,0.35036,9.310754,3.037614,-0.111159,-0.134644,-0.043149,0.047025,-0.0171875,0.058025,
36503351812610,-0.144583597779274,-0.01789864171296358,9.661963396089757,0.1733206257224083,0.12365149226417547,0.11598368734121323,0.03781740739941597,0.015812499448657036,-0.0077195740304887295,0.0,1791183706000,0.26295,9.192,2.9650502,0.357189,9.311543,3.034398,-0.113199,-0.142615,-0.01599,0.0331375,0.0158125,0.0697125,
36503361807012,-0.12460982799530029,-0.021548704989254475,9.691107443704206,0.22402634397149088,0.12565394742408675,0.13177647888660432,0.04323267191648483,0.02213750034570694,2.496214583516121E-4,0.0,1791183706010,0.28395,9.24705,2.8860002,0.364284,9.311916,3.032412,-0.070016,-0.090316,-0.116955,0.0077,0.0221375,0.0708125,
36503371801165,-0.11176029592752457,-0.01635638829320669,9.698231508275455,0.26036023199558256,0.11952379260017791,0.13408288210630417,0.039088860154151917,0.02213750034570694,0.009505813010036945,0.0,1791183706022,0.294,9.252001,2.8930502,0.370813,9.311628,3.032506,-0.083728,-0.063693,-0.155356,-0.0232375,0.0221375,0.0611875,
36503381795403,-0.12037786841392517,-0.01169444601982832,9.69265036789067,0.27277620136737823,0.1134003743624132,0.1293204590678215,0.04396573454141617,0.030662499368190765,0.01918020471930504,0.0,1791183706030,0.282,9.262051,2.84295,0.37619,9.310383,3.035666,-0.132201,-0.072024,-0.151334,-0.0551375,0.0306625,0.054725,
36503391789795,-0.0748085081577301,-0.009693987853825092,9.732641180363057,0.24127681963145733,0.1119066232767129,0.11522801965475082,0.052854906767606735,0.04441250115633011,0.031462036073207855,0.0,1791183706040,0.26505002,9.288,2.8960502,0.380635,9.30817,3.041886,-0.07679,-0.014744,-0.186284,-0.0955625,0.0444125,0.0463375,
36503401783940,-0.09570440649986267,-0.013468325231224298,9.72342413747658,0.1921793844550848,0.11346012045503938,0.10545218139886856,0.06985020637512207,0.06366249918937683,0.04421057552099228,0.0,1791183706051,0.28395,9.255,2.9680502,0.383886,9.304552,3.052529,-0.135108,-0.051828,-0.132284,-0.1359875,0.0636625,0.0473,
36503411778173,-4.2488332837820053E-4,-0.017081882478669284,9.867063166679968,0.10290312860161066,0.11182449986492639,0.08061519246548414,0.05664920061826706,0.05197500064969063,0.05027730390429497,0.0,1791183706060,0.35805002,9.32205,3.21405,0.387598,9.299804,3.066504,-0.045446,-0.006378,0.023729,-0.1552375,0.051975,0.0430375,
36503421772540,0.09557536244392395,-0.014673285419121385,9.897127634337439,0.0059841161593794795,0.11369073160137134,0.03914806079119444,0.009814748540520668,0.006187499966472387,0.04500269144773483,0.0,1791183706071,0.22395001,9.337951,3.2719502,0.39153,9.294756,3.081272,-0.082897,0.041765,0.188526,-0.1392875,0.0061875,0.03025,
36503431766685,-0.03903868794441223,-0.017763877706602215,9.75264540333924,0.06637009587138891,0.11347071220306569,0.02288022469729185,-0.007052860222756863,-0.016224998980760574,0.035167813301086426,0.0,1791183706080,-0.48795003,8.92905,3.8920503,0.393275,9.29011,3.095027,-0.577848,-0.169066,0.457287,-0.1062875,-0.016224999,0.039875,
36503441760922,-0.026483982801437378,-0.01855947938747704,9.929248719409847,0.10276836771517991,0.11347328040418081,0.013215319626033306,0.04473293572664261,-0.007699999958276749,0.007347966078668833,0.0,1791183706090,0.30600002,9.25905,3.5730002,0.401535,9.28634,3.105263,-0.509493,-0.253882,0.741538,-0.001925,-0.0077,0.16445,
36503451755076,0.22748130559921265,-0.010991311492398381,10.089517143956552,0.1831983016803861,0.12408674721447167,0.051421822793781755,0.019961051642894745,-0.03217500075697899,-0.006317425053566694,0.0,1791183706100,0.44205,9.55605,3.2070003,0.419339,9.285641,3.105004,0.068858,0.149043,0.262957,0.0407,-0.032175,0.153725,
36503461749475,0.29602357745170593,-0.003738238336518407,9.942932782952543,0.24479439705610276,0.13691740305339062,0.11071151494979858,-0.025409633293747902,-0.059812501072883606,-0.011469947174191475,0.0,1791183706110,0.26505002,9.457951,3.0559502,0.432547,9.28655,3.100472,-0.085607,0.270237,0.138202,0.0490875,-0.0598125,0.0919875,
36503471743728,0.020015481859445572,-0.013835866982117296,9.79003664223436,0.22491999790072442,0.12698605662965995,0.09559953883290291,-0.04898184910416603,-0.07466249912977219,-0.012047839350998402,0.0,1791183706120,0.11895001,9.34305,2.9220002,0.440593,9.28821,3.09436,-0.292372,0.077041,-0.126231,0.047025,-0.0746625,0.0622875,
36503481737869,-0.01431933045387268,-0.024197362596169114,9.862056986906207,0.21577142998576165,0.1178172524254202,0.10054341033101082,-0.07009705901145935,-0.09171249717473984,-0.004110846668481827,0.0,1791183706130,0.28395,9.37395,3.051,0.447559,9.289494,3.089496,-0.220329,0.044632,-0.147703,0.02035,-0.0917125,0.0504625,
36503491732264,0.13917064666748047,-0.021004830906167626,9.973357159699749,0.23912651762366294,0.1212847172238265,0.13367433622479438,-0.0617544986307621,-0.07369999587535858,0.004201298579573631,0.0,1791183706141,0.43695003,9.4129505,3.2670002,0.453731,9.289356,3.089015,-0.106791,0.11899,0.09938,-0.00935,-0.073699996,0.0270875,
36503501726492,0.19430401921272278,-0.010743791749700905,9.995835707178076,0.20765407141298053,0.13006729142905094,0.1270388789474964,-0.015531518496572971,-0.016224998980760574,0.013635668903589249,0.0,1791183706150,0.43500003,9.441,3.255,0.457507,9.287851,3.092974,0.00196,0.149226,0.167248,-0.04235,-0.016224999,0.005775,
36503511720633,0.16398750245571136,-2.621231134980917E-4,9.912241979294514,0.13977972473949196,0.13517869072741956,0.1006316639482975,0.04002860188484192,0.04867500066757202,0.023812035098671913,0.0,1791183706160,0.33705002,9.38595,3.1690502,0.457376,9.285471,3.100138,-0.081706,0.137241,0.119382,-0.07645,0.048675,-0.007975,
36503521715018,0.051663838326931,0.007332482794299722,9.81104782389209,0.12984155993908644,0.13360671404175978,0.10696133524179459,0.09142355620861053,0.10518749803304672,0.03150777518749237,0.0,1791183706170,0.24795002,9.295051,3.1300502,0.453979,9.282485,3.10956,-0.169288,0.049247,0.040528,-0.100925,0.1051875,-0.0111375,
36503531709266,-0.06518848240375519,0.011282557854428887,9.702221015335859,0.1100028244778514,0.13019279001738981,0.09678750485181808,0.12849615514278412,0.1434125006198883,0.03519178554415703,0.0,1791183706180,0.12900001,9.184951,3.1230001,0.448605,9.27911,3.120401,-0.274047,-0.055116,-0.001436,-0.1115125,0.1434125,-0.006875,
36503541703412,-0.1121261715888977,0.012939784536138177,9.670279949144353,0.004893681593239302,0.1283879109899665,0.04652814120054245,0.14892128109931946,0.16046249866485596,0.03422444313764572,0.0,1791183706190,0.093,9.139951,3.1570501,0.442656,9.275641,3.131536,-0.327954,-0.111502,0.025734,-0.1062875,0.1604625,0.005775,
36503551697579,-0.12693384289741516,0.013822272280231118,9.671170276042986,0.12843094617128373,0.12735865768574878,0.017719431221485137,0.14914746582508087,0.15619999170303345,0.028989464044570923,0.0,1791183706200,0.117000006,9.12495,3.2020502,0.437488,9.272541,3.141435,-0.339545,-0.127555,0.027807,-0.0881375,0.15619999,0.0165,
36503561691984,-0.0806625485420227,0.016019636252894997,9.793640730859844,0.16224898025393486,0.125313989753911,0.06664944142103195,0.11843767017126083,0.12113749980926514,0.021382013335824013,0.0,1791183706211,0.14805001,9.154051,3.4780502,0.434073,9.269826,3.149913,-0.305005,-0.129629,0.172557,-0.0636625,0.1211375,0.0207625,
36503571686213,0.054992564022541046,0.024357279250398278,9.894279239311539,0.16652710661292075,0.12203949622493022,0.06598369628190995,0.08104699850082397,0.07961250096559525,0.007692613173276186,0.0,1791183706220,0.13800001,9.219001,3.58995,0.432393,9.267577,3.156746,-0.279383,-0.062737,0.393174,-0.0210375,0.0796125,0.0207625,
36503581680354,0.08353938162326813,0.034553141752257946,9.865777298572635,0.16991245970129965,0.11797201337720274,0.03623812347650528,0.05426822602748871,0.04661250114440918,-0.009487521834671497,0.0,1791183706230,0.11400001,9.24705,3.4369502,0.431862,9.266893,3.158832,-0.333918,-0.02614,0.381511,0.0331375,0.0466125,0.0270875,
36503591674752,-0.041208475828170776,0.03623314336873591,9.653831112615515,0.1490934632718563,0.11663432662045917,0.022054584324359895,0.032661132514476776,0.018975000828504562,-0.022105775773525238,0.0,1791183706240,0.23400001,9.147,3.078,0.43322,9.26825,3.15466,-0.277816,-0.070592,0.117533,0.0735625,0.018975,0.0356125,
36503601668972,-0.19533765316009521,0.03125148103572428,9.712231408195665,0.1363670103251934,0.12405492744583434,0.035735346376895905,-0.009995374828577042,-0.02474999986588955,-0.02535121701657772,0.0,1791183706253,0.21195,9.262051,2.9149501,0.437053,9.271195,3.145458,-0.123632,-0.099874,-0.297039,0.0831875,-0.02475,0.03025,
36503611663123,-0.08363834023475647,0.02709080819040537,9.719259043685447,0.14329183995723724,0.12642044048996678,0.036330504715442656,-0.06911585479974747,-0.07796250283718109,-0.027198240160942078,0.0,1791183706260,0.22395001,9.303,2.805,0.439711,9.274607,3.13502,-0.253182,0.01403,-0.267447,0.0853875,-0.0779625,0.0026125,
36503621657506,-0.12520694732666016,0.016051692701876164,9.655599952351594,0.169157911837101,0.12955882567822147,0.0723704069852829,-0.10196998715400696,-0.10339999943971634,-0.02623586170375347,0.0,1791183706270,0.16695,9.24705,2.77395,0.441029,9.278268,3.123976,-0.206616,-0.018361,-0.309076,0.078925,-0.1034,-0.023924999,
36503631651660,-0.18065020442008972,0.00897111687809229,9.584302890465809,0.17173646539449694,0.1360815530176842,0.12520832419395447,-0.1145298182964325,-0.10986249893903732,-0.019842686131596565,0.0,1791183706280,0.076050006,9.168,2.7930002,0.4398,9.281507,3.11452,-0.351433,-0.062301,-0.333138,0.056649998,-0.1098625,-0.040975,
36503641645907,-0.2762214243412018,-0.003515755198895931,9.51812077748532,0.15449148267507554,0.14955317840530638,0.17221091389656068,-0.09961894899606705,-0.09487500041723251,-0.010401996783912182,0.0,1791183706290,0.112050004,9.07695,2.8620002,0.438002,9.283647,3.108385,-0.347241,-0.184151,-0.271937,0.0279125,-0.094875,-0.034649998,
36503651640289,-0.29231107234954834,-0.02950537409633398,9.564415188631072,0.12495615631341934,0.15229198119479037,0.1916055977344513,-0.06540676206350327,-0.06297499686479568,0.002925181994214654,0.0,1791183706300,0.19095,9.099,2.94105,0.437127,9.28434,3.10644,-0.32003,-0.218363,-0.224501,-0.01155,-0.062975,-0.0165,
36503661634429,-0.16052302718162537,-0.052332704328000544,9.736356295982059,0.14099883884191514,0.13502439367362254,0.20698253512382508,-0.03158411383628845,-0.031075000762939453,0.01651625707745552,0.0,1791183706310,0.31305,9.195001,3.186,0.437846,9.283268,3.109543,-0.201039,-0.140677,-0.057616,-0.051975,-0.031075,5.5E-4,
36503671628662,0.03871389850974083,-0.05139778349548578,9.88439105768722,0.13796024248003957,0.13558567034222435,0.17419836595654486,-0.011150785721838474,-0.008662499487400055,0.024386471137404442,0.0,1791183706319,0.411,9.283051,3.3700502,0.439501,9.280564,3.117367,-0.054253,-0.025445,0.205104,-0.07645,-0.0086624995,0.0015125,
36503681623049,0.1036015972495079,-0.045501737110316756,9.873160681770617,0.09529342129826546,0.1395751068663137,0.11734800562262535,-0.0023491575848311186,0.003987499978393316,0.02504076063632965,0.0,1791183706330,0.624,9.274051,3.3289502,0.440648,9.277416,3.126565,0.004453,0.037556,0.212665,-0.0796125,0.0039875,-0.007975,
36503691617203,-0.05785755068063736,-0.055353146977722645,9.793568579625457,0.03793988451361656,0.13299097345424535,0.07367523089051246,-0.032571904361248016,-0.021449999883770943,0.029104337096214294,0.0,1791183706340,-0.08400001,9.20205,3.351,0.442344,9.273943,3.136612,0.072189,-0.121775,0.169099,-0.0944625,-0.02145,-0.025024999,
36503701611460,0.01700586825609207,-0.06421805452555418,9.895050089703805,0.02451866194605827,0.12146344617721161,0.011811842769384384,-0.03109685145318508,-0.02681249938905239,0.0350499227643013,0.0,1791183706350,0.076050006,9.31005,3.351,0.43829,9.270009,3.148783,-0.668353,-0.046015,0.281426,-0.10945,-0.0268125,-0.0026125,
36503711605614,0.13578936457633972,-0.06562796141952276,9.898443124166514,0.11982104256749153,0.11894385437141454,0.04745063558220863,0.02847614698112011,0.026399999856948853,0.031214110553264618,0.0,1791183706360,0.49695003,9.33405,3.2569501,0.44008,9.266438,3.159031,0.028964,0.101206,0.120344,-0.0935,0.0264,0.023924999,
36503721599997,0.024456113576889038,-0.06698834765702485,9.79585334820293,0.16980740278959275,0.11774412323348851,0.044599078595638275,0.021257977932691574,0.023237500339746475,0.026494506746530533,0.0,1791183706370,0.25305,9.255,3.1999502,0.442014,9.263546,3.167228,-0.102256,0.022696,0.023561,-0.0807125,0.0232375,0.009075,
36503731594238,-0.01788913458585739,-0.06462338026612997,9.754399275947065,0.1925118461251259,0.11823053812669057,0.020300932228565216,-0.037265852093696594,-0.03959999978542328,0.02031547576189041,0.0,1791183706382,0.20805001,9.160951,3.3439503,0.443554,9.261242,3.173747,-0.216324,-0.03246,0.069715,-0.0614625,-0.0396,0.009075,
36503741588387,-0.03766351193189621,-0.0609002472832799,9.786820954464595,0.21594533771276475,0.1178478442415307,0.024339739978313447,-0.08412956446409225,-0.09171249717473984,0.010860656388103962,0.0,1791183706390,0.23400001,9.154051,3.45405,0.446363,9.259315,3.178971,-0.305324,-0.102359,0.224902,-0.0317625,-0.0917125,0.0122375,
36503751582756,0.036778904497623444,-0.052714609913527964,9.89446635105051,0.2352768823504448,0.1186598027150403,0.02829434722661972,-0.09483309090137482,-0.10670000314712524,-9.739878587424755E-4,0.0,1791183706400,0.50205004,9.23505,3.5160003,0.451904,9.258156,3.181562,-0.069051,-0.062892,0.306108,0.0055,-0.1067,0.0176,
36503761576992,0.07019725441932678,-0.04517161976546049,9.83383623778514,0.189374291151762,0.12140660622885496,0.015175925195217132,-0.07416993379592896,-0.08538749814033508,-0.012184458784759045,0.0,1791183706413,0.45900002,9.196951,3.4510503,0.458719,9.258017,3.180995,0.058209,-0.036417,0.313858,0.0396,-0.0853875,0.0143,
36503771571127,-6.539002060890198E-4,-0.047953942976892,9.815730736071348,0.12750192806124686,0.11970493262851739,0.01015392243862152,-0.0543232262134552,-0.06517499685287476,-0.019431961700320244,0.0,1791183706419,0.40395,9.204,3.387,0.463816,9.258899,3.177687,-0.057021,-0.080394,0.240552,0.061875,-0.065175,0.0133375,
36503781565532,-0.0020821429789066315,-0.05223501920700073,9.728446445981877,0.08699055165052413,0.11641146705948899,0.013315320760011674,-0.011815116740763187,-0.02474999986588955,-0.022307489067316055,0.0,1791183706431,0.43305,9.148951,3.279,0.468457,9.260382,3.17268,-0.042508,-0.057935,0.168945,0.0726,-0.02475,0.025024999,
36503791559684,-0.1439683586359024,-0.057373013347387314,9.568250263401003,0.0038661941885948185,0.11806736096123466,0.007945648580789565,0.0356370247900486,0.023237500339746475,-0.019810417667031288,0.0,1791183706439,0.32700002,9.0390005,3.1210501,0.472355,9.262063,3.16719,-0.084713,-0.160173,0.03557,0.0661375,0.0232375,0.032449998,
36503801553931,-0.24325159192085266,-0.059768710285425186,9.599169560489596,0.11140238344669343,0.12128475818182448,0.06395174786448479,0.06894546002149582,0.055137500166893005,-0.012626026757061481,0.0,1791183706450,0.37800002,9.08205,3.08505,0.475409,9.263483,3.162578,-0.123681,-0.223842,-0.079527,0.045925,0.0551375,0.0452375,
36503811548310,-0.15833930671215057,-0.06350375860929489,9.699048205423162,0.15425813868641852,0.12309899326778478,0.10965906009078026,0.08558551967144012,0.07108750194311142,-0.004290990065783262,0.0,1791183706461,0.294,9.130051,3.2599502,0.478747,9.264057,3.160389,-0.160538,-0.159773,0.00167,0.02145,0.0710875,0.0537625,
36503821542452,-0.0774768739938736,-0.06111725494265556,9.840041015877715,0.14532458707690238,0.12233995654149235,0.12502365484833716,0.09906942397356033,0.07851249724626541,0.0016157622449100018,0.0,1791183706470,0.19605,9.1710005,3.561,0.482668,9.26345,3.161575,-0.224313,-0.144801,0.218357,0.0066,0.0785125,0.0760375,
36503831536655,0.09901565313339233,-0.04713396206498146,9.956621374068357,0.12914383560419082,0.12385174039462381,0.10480409562587738,0.12539488077163696,0.09350000321865082,0.0028559172060340643,0.0,1791183706481,0.39900002,9.231001,3.7099502,0.489054,9.261746,3.165579,-0.201968,-0.0593,0.511233,0.0086624995,0.0935,0.113299996,
36503841531040,-6.999149918556213E-4,-0.03335788659751415,9.776094032672557,0.10444475412368774,0.11239762502501313,0.07615040689706802,0.1699921190738678,0.13062499463558197,-0.001177438534796238,0.0,1791183706489,0.6,9.142051,3.4110003,0.499513,9.260347,3.16804,0.055721,-0.10818,0.305265,0.0257125,0.130625,0.139975,
36503851525208,0.06001847982406616,-0.015741408988833427,10.025569209872547,0.03067231774330139,0.09698456319267926,0.01549639254808426,0.17472556233406067,0.12966249883174896,0.0012956350110471249,0.0,1791183706500,0.624,9.292951,3.7099502,0.510738,9.259119,3.169837,-0.2452,-0.068644,0.425573,0.02145,0.1296625,0.1579875,
36503861519433,0.2922922372817993,0.006899354234337807,10.065821994590431,0.0644759938120842,0.11220317220007636,0.07462991625070572,0.24554063379764557,0.2008875012397766,-0.004602092318236828,0.0,1791183706510,1.0669501,9.3820505,3.48705,0.526196,9.257624,3.171675,0.503091,0.102839,0.519503,0.0416625,0.2008875,0.1654125,
36503871513589,0.17343264818191528,0.01363529171794653,9.91817395645504,0.11149649992585182,0.11781442032389684,0.1248118206858635,0.276467502117157,0.2605625092983246,-0.01299795787781477,0.0,1791183706520,0.79695004,9.40095,3.0589502,0.534411,9.257949,3.16935,0.389531,0.116879,0.129178,0.054449998,0.2605625,0.0845625,
36503881507960,0.09063106030225754,0.01298676487058401,9.907576658502993,0.1310805507004261,0.11735219495871653,0.12313490211963654,0.27715322375297546,0.2796750068664551,-0.008508596569299698,0.0,1791183706530,0.55695003,9.549001,2.5819502,0.533797,9.259759,3.164162,0.16509,0.21802,-0.385174,0.032175,0.279675,0.0345125,
36503891502189,0.08429338037967682,0.02009431142359972,9.909274832809542,0.2040853090584278,0.11715078429996685,0.14013356119394302,0.21337993443012238,0.2307250052690506,0.0058718156069517136,0.0,1791183706540,0.588,9.56595,2.5180502,0.528017,9.261724,3.159382,0.008064,0.3214,-0.682064,-0.020075,0.230725,-0.0111375,
36503901496345,0.12069086730480194,0.025278561376035215,9.992253487796873,0.26192709878087045,0.11917607244420365,0.15226803869009017,0.0965857207775116,0.1274625062942505,0.017507381737232208,0.0,1791183706549,0.52605003,9.51105,3.0180001,0.521264,9.262081,3.159451,0.084249,0.273159,-0.440319,-0.0647625,0.1274625,-0.0633875,
36503911490714,0.22189971804618835,0.029584079049527645,9.985830630339505,0.26321318969130514,0.12452614521499468,0.13818953484296798,0.02697701007127762,0.07108750194311142,0.01638665795326233,0.0,1791183706560,0.48105,9.37395,3.4080002,0.511136,9.260569,3.165533,0.003398,0.193268,0.121025,-0.069025,0.0710875,-0.113299996,
36503921484938,0.08144155144691467,0.032433350943028925,9.793332084676976,0.22459541112184522,0.1250271473019388,0.11979131549596786,0.02755133807659149,0.07644999772310257,0.004577579442411661,0.0,1791183706571,0.045,9.18,3.4110003,0.497394,9.259027,3.172222,-0.200732,-0.011092,0.315448,-0.034925,0.07645,-0.13255,
36503931479052,-0.001462407410144806,0.03325468730181456,9.881126374544573,0.17752302885055543,0.12474751085000868,0.1013726219534874,0.05461781099438667,0.08387500047683716,-0.004156159237027168,0.0,1791183706581,0.47595003,9.23505,3.4819503,0.483104,9.258596,3.175689,-0.464169,-0.075304,0.285645,0.0012375,0.083875,-0.076175,
36503941473450,0.08649491518735886,0.03946260865777731,9.841026111684497,0.11730932146310806,0.12415176084070993,0.1018129289150238,0.03560733050107956,0.06998749822378159,-0.009583212435245514,0.0,1791183706589,0.68205005,9.219001,3.3750002,0.475819,9.258515,3.177023,0.227857,0.008573,0.207697,0.015125,0.0699875,-0.0963875,
36503951467670,0.2439000904560089,0.04981866795569658,10.0619449910836,0.05182485729455946,0.1318930848849399,0.1264547735452652,-0.003684740513563156,0.047712501138448715,-0.01033740770071745,0.0,1791183706599,0.19305001,9.23805,3.9829502,0.463249,9.257978,3.180445,-0.2025,0.013898,0.740576,0.0097624995,0.0477125,-0.1516625,
36503961461802,0.1553487330675125,0.05407624188810587,9.909783806205793,0.011667244136333466,0.13384216188290018,0.11314457654953003,0.06364857405424118,0.10944999754428864,-0.029608312994241714,0.0,1791183706609,-0.117000006,9.07995,3.96795,0.445744,9.257996,3.182894,-0.386108,-0.096251,0.812347,0.0726,0.10945,-0.13255,
36503971456161,0.07832780480384827,0.058025327138602735,9.883242122304921,0.010613074898719793,0.13333329110047135,0.11252182722091675,0.12532548606395721,0.1381874978542328,-0.042617470026016235,0.0,1791183706620,1.14795,9.255,3.2719502,0.435906,9.259779,3.17907,0.023561,-0.121976,0.593511,0.126775,0.1381875,-0.03355,
36503981450315,-0.04365457594394684,0.055946705490350725,10.233801123173926,0.03605016767978668,0.1345724361972909,0.10408339351415634,0.05581006780266762,0.08703749626874924,-0.04571808874607086,0.0,1791183706630,0.60300004,9.8560505,2.6880002,0.435118,9.264643,3.164976,0.824012,0.086243,-0.50091,0.127875,0.087037496,-0.09955,
36503991444559,0.40985769033432007,0.08363800793886185,10.080370442378468,0.01648790985345841,0.14699414943871145,0.16875594854354858,0.031522102653980255,0.09129999577999115,-0.026520900428295135,0.0,1791183706639,-0.048,9.762,2.5129502,0.419766,9.269871,3.15171,0.020547,0.638864,-0.607355,0.0587125,0.091299996,-0.1783375,
36504001438941,0.36931467056274414,0.11426632106304169,10.278695644935802,0.055649329721927654,0.1393086632552017,0.19383886456489563,0.09338127076625824,0.14561249315738678,-0.015050115063786507,0.0,1791183706650,0.69105005,9.74505,3.1950002,0.399094,9.273148,3.144756,-0.334669,0.429686,-0.073676,0.028875,0.1456125,-0.1420375,
36504011433117,0.5025408267974854,0.14731032773852348,10.294627446681705,0.14348596781492232,0.14878561911761795,0.2632772833108902,0.149428129196167,0.23182499408721924,-0.02895185351371765,0.0,1791183706661,0.92295,9.793051,3.0370502,0.380487,9.275942,3.138814,0.624858,0.529842,-0.072522,0.062975,0.231825,-0.2261875,
36504021427363,0.35077959299087524,0.16872315108776093,9.782511858704899,0.21639501899480817,0.14567832455245278,0.31776764094829557,0.1333361268043518,0.25519999861717224,-0.04478968679904938,0.0,1791183706671,0.08805001,9.42195,2.62995,0.347649,9.28068,3.1286,0.166884,0.410182,-0.136529,0.1013375,0.2552,-0.350625,
36504031421504,-0.2015099674463272,0.15369687005877494,9.690105276090607,0.1843836337327957,0.16615371335684495,0.2861965626478195,0.08033148944377899,0.19882500171661377,-0.047503940761089325,0.0,1791183706680,-0.37995002,9.42,2.2399502,0.305344,9.287778,3.111906,-0.52583,0.082262,-0.828518,0.1150875,0.198825,-0.351725,
36504041415903,-0.12081967294216156,0.14769088216125964,9.76295936038263,0.053606316447257996,0.17362900918050594,0.18006108999252318,0.02883586287498474,0.12636250257492065,-0.034679774194955826,0.0,1791183706689,-0.35205,9.453,2.4150002,0.26719,9.294294,3.095919,-0.676818,0.137994,-0.738311,0.0842875,0.1263625,-0.29535,
36504051410148,-0.07086485624313354,0.14114671535789966,9.840213542089222,0.02111939191818238,0.17918765231664194,0.09202518463134765,-0.012534309178590775,0.06146249920129776,-0.026758462190628052,0.0,1791183706700,-0.13095,9.52995,2.4480002,0.238455,9.299428,3.082818,-0.456546,0.156803,-0.662961,0.0672375,0.0614625,-0.23045,
36504061404307,0.06584186851978302,0.12982419691979885,9.878618035768742,0.10783643424510955,0.17641232348379698,0.00468539297580719,-0.05958564206957817,-0.0034374999813735485,-0.025525204837322235,0.0,1791183706709,-0.040050004,9.613951,2.2710001,0.218556,9.304196,3.06988,-0.300178,0.288504,-0.64284,0.0683375,-0.0034375,-0.1846625,
36504071398677,-1.2972933053970337,0.056287899240851404,8.709310667654512,0.42901258021593097,0.35700399748532613,0.3249291867017746,-0.12952086329460144,-0.09487500041723251,-0.016071707010269165,0.0,1791183706720,-0.11505,8.635051,1.12905,0.208554,9.31025,3.052171,0.121626,-0.763815,-1.84378,0.0427625,-0.094875,-0.1293875,
36504081392907,-1.0379542112350464,-1.4136433601379393E-4,9.128571489285708,0.6609739840030671,0.42904185065565376,0.4922180354595184,-0.09680352360010147,-0.08318749815225601,0.02958245947957039,0.0,1791183706730,-0.19605,9.0060005,1.4779501,0.202617,9.31424,3.04037,-0.559572,-0.473319,-1.858315,-0.098725,-0.0831875,-0.0506,
36504091387305,-0.4986788332462311,-0.029289975017309188,9.54737812391867,0.761628732085228,0.4419250922939188,0.5677898675203323,0.04272780194878578,0.05087500065565109,0.06229867413640022,0.0,1791183706739,0.58095,9.33405,1.9210501,0.201218,9.313095,3.043969,0.011646,-0.103466,-1.2897,-0.2008875,0.050875,-0.0048125,
36504101381478,-0.1488429307937622,-0.04276666492223739,9.875947891935981,0.8466627657413482,0.44125514029499635,0.5833854824304581,0.0801180824637413,0.11261250078678131,0.0815548375248909,0.0,1791183706749,0.813,9.58695,2.22795,0.200649,9.308752,3.05727,0.586823,0.164238,-1.015696,-0.265925,0.1126125,-0.0686125,
36504111375762,0.17454245686531067,-0.04513452798128128,10.137979688702968,0.8794130057096481,0.4399536794575252,0.5616453647613525,0.01672055572271347,0.08813749998807907,0.09210763871669769,0.0,1791183706760,0.44700003,9.68805,2.9530501,0.189965,9.302139,3.078011,0.492163,0.350416,-0.533655,-0.30525,0.0881375,-0.1942875,
36504121369928,0.3783750832080841,-0.03028785139322281,10.109249511477945,0.5127082496881485,0.448893930240566,0.22651168704032898,0.02305097132921219,0.12856249511241913,0.09378756582736969,0.0,1791183706771,0.12105001,9.456,3.5730002,0.164995,9.293202,3.106313,0.143638,0.335411,0.182639,-0.311575,0.1285625,-0.29535,
36504131364331,-0.16305066645145416,-0.038367264345288275,9.55513502947067,0.23159206807613372,0.44975575219805736,0.05153097808361053,0.08554235845804214,0.2073500007390976,0.09174899011850357,0.0,1791183706779,-0.555,8.658,4.00395,0.127839,9.282286,3.140516,-0.4824,-0.417422,0.744592,-0.2998875,0.20735,-0.3337125,
36504141358574,-0.13831782341003418,-0.04960790127515793,9.89349689757887,0.0714839607477188,0.4493037527504492,0.020541223883628845,0.14716926217079163,0.2615250051021576,0.08657094836235046,0.0,1791183706789,-0.30105,9.04605,3.9949503,0.087386,9.270615,3.176172,-0.465889,-0.424904,0.826252,-0.2754125,0.261525,-0.301675,
36504151352745,0.2305685132741928,-0.050274480134248734,10.126678015322117,0.09173811972141266,0.44887750223334294,0.09642351269721985,0.18179111182689667,0.29782500863075256,0.0781831294298172,0.0,1791183706801,-0.12195001,9.32205,3.9540002,0.049131,9.260243,3.2071,-0.255252,-0.024278,0.778564,-0.2435125,0.297825,-0.3007125,
36504161347129,0.34851330518722534,-0.04061625152826309,10.10600592161927,0.4561468690633774,0.4552310075413896,0.13121768236160278,0.18533354997634888,0.3104749917984009,0.06418387591838837,0.0,1791183706809,-0.09105001,9.39795,3.7150502,0.010372,9.2517,3.232019,-0.075235,0.149464,0.629147,-0.1956625,0.310475,-0.32615,
36504171341343,0.18755368888378143,-0.035154957324266434,9.8592794921308,0.5852714389562607,0.45727577691291627,0.09305340349674225,0.13207343220710754,0.26688748598098755,0.04869891330599785,0.0,1791183706820,-0.40695003,9.25905,3.3630002,-0.031094,9.245625,3.249224,-0.201361,0.093289,0.298302,-0.1434125,0.2668875,-0.36245,
36504181335499,-0.09646490961313248,-0.03779547400772572,9.58087059776828,0.6741604223847389,0.45746966802139427,0.10637055486440658,0.045543111860752106,0.17861250042915344,0.03961695358157158,0.0,1791183706830,-0.80895007,9.01305,3.147,-0.074822,9.241505,3.260218,-0.538312,-0.096519,-0.028726,-0.11055,0.1786125,-0.37193748,
36504191329870,-0.3361439108848572,-0.07509555406868458,9.462220599738203,0.6501908197999,0.44979786893573626,0.06680533736944198,-0.03438204526901245,0.08071249723434448,0.03659581393003464,0.0,1791183706840,-1.1179501,8.83605,3.1950002,-0.116751,9.23804,3.268793,-0.88185,-0.31811,-0.140252,-0.0977625,0.0807125,-0.33467498,
36504201324084,-0.4384606182575226,-0.11548431850969791,9.476931034603945,0.49464487582445144,0.44431245392387797,0.0670004889369011,-0.07446847856044769,0.01251249946653843,0.03679022192955017,0.0,1791183706851,-1.2060001,8.7300005,3.48495,-0.152416,9.233919,3.278944,-1.020961,-0.495948,0.038738,-0.0977625,0.0125124995,-0.26235,
36504211318244,-0.35650697350502014,-0.1584367085248232,9.61912280794893,0.0185071423649788,0.4235274381941484,0.20800454467535018,-0.11000865697860718,-0.05664999783039093,0.02951132133603096,0.0,1791183706860,-1.2060001,8.74005,3.83205,-0.178252,9.229201,3.290914,-1.05498,-0.527143,0.359562,-0.0785125,-0.056649998,-0.172975,
36504221312614,-0.19943872094154358,-0.18594762422144412,9.729040669355484,0.23387204855680463,0.40710887559162395,0.28540302664041517,-0.1440293788909912,-0.12155000120401382,0.01354164443910122,0.0,1791183706870,-1.13205,8.74905,4.1020503,-0.193228,9.224837,3.302279,-0.984938,-0.467713,0.657049,-0.034925,-0.12155,-0.089925,
36504231306828,-0.12794452905654907,-0.18226935230195523,9.778225004969402,0.31224017441272733,0.4072839495085285,0.2916989505290985,-0.17139950394630432,-0.17476250231266022,-0.010117161087691784,0.0,1791183706880,-1.0680001,8.74905,4.2340503,-0.198571,9.221918,3.310103,-0.919739,-0.469582,0.87428,0.031075,-0.1747625,-0.0187,
36504241300984,-0.13566571474075317,-0.1830116543918848,9.75111072878825,0.3480268239974975,0.4071847938122181,0.2516033113002777,-0.18157024681568146,-0.20776249468326569,-0.0358915850520134,0.0,1791183706889,-1.01505,8.710951,4.263,-0.195663,9.221225,3.312212,-0.83885,-0.497619,0.934421,0.1034,-0.2077625,0.0473,
36504251295366,-0.15520209074020386,-0.18722851611673832,9.706029649513793,0.3261692881584167,0.40643756933121483,0.19495160579681398,-0.18240618705749512,-0.22907499969005585,-0.059975095093250275,0.0,1791183706902,-1.02405,8.706,4.1670003,-0.186021,9.222885,3.308143,-0.855675,-0.513645,0.924124,0.1716,-0.229075,0.1079375,
36504261289520,-0.1873117983341217,-0.19988619945943356,9.68123106065341,0.25416597425937654,0.40227981578007943,0.16111257076263427,-0.1721908450126648,-0.23539999127388,-0.08123955875635147,0.0,1791183706910,-0.94095004,8.793,3.9400501,-0.171297,9.227104,3.297155,-0.848851,-0.491527,0.774701,0.2332,-0.23539999,0.1590875,
36504271283741,-0.17070186138153076,-0.14355662725865842,9.693193052604883,0.2617357537150383,0.3138208054783297,0.1553651988506317,-0.16019964218139648,-0.23759999871253967,-0.09333128482103348,0.0,1791183706919,-0.80205005,8.887951,3.7840502,-0.151474,9.23358,3.279951,-0.753753,-0.397446,0.574032,0.2695,-0.2376,0.202675,
36504281277887,-0.1276247352361679,-0.09804015345871449,9.695723710098392,0.2221065774559975,0.2375438652373861,0.1553012400865555,-0.14393460750579834,-0.2311374992132187,-0.09724106639623642,0.0,1791183706929,-0.675,8.955001,3.6550503,-0.127197,9.241192,3.25948,-0.593676,-0.30929,0.470005,0.28325,-0.2311375,0.2336125,
36504291272277,-0.15371769666671753,-0.08079209662973881,9.603923253646096,0.09191114753484726,0.21967936703598637,0.15891163647174836,-0.09616012871265411,-0.18754999339580536,-0.09830868989229202,0.0,1791183706940,-0.615,8.965051,3.38895,-0.101002,9.249426,3.236962,-0.526497,-0.284006,0.329717,0.2897125,-0.18755,0.253825,
36504301266496,-0.2853021025657654,-0.08761505521833897,9.504352516172515,0.023072905838489532,0.22376805594701532,0.18493163883686065,-0.047637082636356354,-0.14176249504089355,-0.09385784715414047,0.0,1791183706949,-0.53805,9.00105,3.0040503,-0.074638,9.258335,3.212108,-0.488217,-0.297703,-0.023712,0.2800875,-0.1417625,0.269775,
36504311260652,-0.3002076745033264,-0.11135256178677082,9.554044796895228,0.07789221256971357,0.21984568832671786,0.2075108140707016,-0.0341041162610054,-0.13007499277591705,-0.0830683782696724,0.0,1791183706959,-0.44700003,9.13305,2.769,-0.04766,9.267453,3.18623,-0.467312,-0.208659,-0.323445,0.25135,-0.130075,0.27719998,
36504321255027,-0.2418457269668579,-0.14236360229551792,9.669870631811351,0.06995936334133146,0.19034234168134723,0.22173958718776704,-0.03674064576625824,-0.13433749973773956,-0.06759211421012878,0.0,1791183706970,-0.29205,9.276,2.7160501,-0.019267,9.275792,3.162167,-0.361629,-0.106864,-0.438246,0.2077625,-0.1343375,0.2814625,
36504331249270,-0.04076974093914032,-0.13624955601990224,9.823078534642503,0.047234722971916165,0.19153979580487637,0.20436858832836152,-0.04764586687088013,-0.1428624987602234,-0.053997527807950974,0.0,1791183706980,0.034950003,9.417001,2.7949502,0.010893,9.282869,3.141375,-0.118851,0.096747,-0.412666,0.1694,-0.1428625,0.2729375,
36504341243436,0.09264170378446579,-0.12470157966017723,9.92299492913741,0.03985489755868912,0.1979229248298707,0.15509670823812485,-0.06495688855648041,-0.14918750524520874,-0.045897677540779114,0.0,1791183706989,0.17400001,9.493951,2.88105,0.041249,9.288667,3.123938,0.095001,0.181929,-0.251576,0.147125,-0.1491875,0.237875,
36504351237820,0.1217251867055893,-0.1301437459886074,9.926171903791696,0.08742132037878036,0.18939200778084314,0.0736912503838539,-0.07859402894973755,-0.14918750524520874,-0.04259467124938965,0.0,1791183707000,0.20805001,9.505951,2.8500001,0.068323,9.293852,3.107993,0.118205,0.203081,-0.226054,0.13859999,-0.1491875,0.19525,
36504361232068,0.12020828574895859,-0.14155899696052074,9.972119501398863,0.1657571405172348,0.16558140902361704,0.010391941666603089,-0.10905732959508896,-0.1662375032901764,-0.03759787604212761,0.0,1791183707010,0.27195,9.540001,2.8909502,0.091994,9.298711,3.09281,0.17833,0.210192,-0.256362,0.1236125,-0.1662375,0.1505625,
36504371226224,0.18279701471328735,-0.14179683066904544,9.993744179024704,0.25062173008918764,0.16511126419974476,0.09532049000263214,-0.14655226469039917,-0.19181250035762787,-0.0332752950489521,0.0,1791183707020,0.26295,9.5130005,3.051,0.112476,9.302783,3.079868,0.157849,0.225274,-0.104556,0.1098625,-0.1918125,0.109037496,
36504381220613,0.17827796936035156,-0.12805968672037124,9.922769001601118,0.2980416685342789,0.17914425798538244,0.13913003206253052,-0.1545061320066452,-0.18754999339580536,-0.03278202936053276,0.0,1791183707029,0.28905,9.424951,3.0900002,0.129099,9.306191,3.068903,0.141225,0.176376,0.028513,0.1076625,-0.18755,0.0708125,
36504391214856,0.0663374811410904,-0.10793561711907387,9.833256290511919,0.31880082637071605,0.17723500703342007,0.13386918753385543,-0.14363960921764374,-0.1662375032901764,-0.031332872807979584,0.0,1791183707039,0.32700002,9.35295,3.0180001,0.142438,9.309375,3.058637,0.173377,0.065453,0.005259,0.1023,-0.1662375,0.040975,
36504401209007,0.029361486434936523,-0.08454451188445092,9.822008994236475,0.3229072615504265,0.16231232185936073,0.11539644747972488,-0.13629639148712158,-0.14918750524520874,-0.026020050048828125,0.0,1791183707049,0.30600002,9.337951,3.0300002,0.152889,9.312202,3.049511,0.19405,0.038683,-0.033497,0.0842875,-0.1491875,0.0133375,
36504411203378,0.01733734831213951,-0.06585229579359293,9.79838998203072,0.31656184718012814,0.15105200273518152,0.09482225999236107,-0.12166067957878113,-0.12691250443458557,-0.02098608762025833,0.0,1791183707059,0.22005,9.307051,3.0559502,0.159978,9.314407,3.042407,0.105559,0.012537,0.011913,0.0672375,-0.1269125,-0.006875,
36504421197607,-0.05608642101287842,-0.058684680797159675,9.683584927421157,0.2514141611754894,0.14791157761275273,0.04704557284712792,-0.10216128081083298,-0.1013374999165535,-0.01791924610733986,0.0,1791183707069,0.18405001,9.204,3.0040503,0.164003,9.316232,3.036595,0.048861,-0.053931,-0.018187,0.056649998,-0.1013375,-0.0218625,
36504431191767,-0.09125743061304092,-0.056850325874984266,9.695128293759092,0.14823520109057428,0.14726735146119652,0.006861507147550583,-0.10018577426671982,-0.09707500040531158,-0.01566367782652378,0.0,1791183707079,0.061950002,9.195001,3.0730503,0.166228,9.317789,3.031699,-0.051526,-0.096189,0.003467,0.0490875,-0.097075,-0.0281875,
36504441186152,-0.09655945003032684,-0.05489501263946295,9.658203790213724,0.03425035700201988,0.14646534404937803,0.03944089338183403,-0.10894663631916046,-0.10766249895095825,-0.015278765931725502,0.0,1791183707089,-0.025950002,9.121051,3.17595,0.167722,9.318988,3.027931,-0.141605,-0.130907,0.098215,0.048125,-0.1076625,-0.023924999,
36504451180383,-0.1746857762336731,-0.05586919691413641,9.633203052110478,0.09064228758215905,0.14719226823705941,0.08025034591555595,-0.10784930735826492,-0.10986249893903732,-0.019683968275785446,0.0,1791183707099,-0.060000002,9.075001,3.2310002,0.16948,9.32013,3.024312,-0.219977,-0.244577,0.199996,0.062975,-0.1098625,-0.0144375,
36504461174746,-0.1803208291530609,-0.05551964845508337,9.621301000225682,0.21510247141122818,0.14688769250549613,0.11978198140859604,-0.1026151105761528,-0.10876250267028809,-0.023712078109383583,0.0,1791183707109,-0.16995001,9.087001,3.1570501,0.171686,9.321612,3.019614,-0.284432,-0.243664,0.183146,0.0768625,-0.1087625,-0.00165,
36504471168895,-0.24414634704589844,-0.05919187273830175,9.536590462618147,0.2965239986777306,0.15059270712997616,0.15739396661520005,-0.08817977458238602,-0.09913749992847443,-0.02399677410721779,0.0,1791183707119,-0.21795002,9.027,3.0679502,0.174067,9.323511,3.013608,-0.380187,-0.274293,0.076625,0.078925,-0.0991375,0.0154,
36504481163113,-0.25907281041145325,-0.06576427649706602,9.541825803118408,0.3248262301087379,0.15619997944410513,0.1909570425748825,-0.05560494214296341,-0.07150000333786011,-0.01900448277592659,0.0,1791183707132,-0.17895001,9.03405,3.0660002,0.177518,9.32514,3.008366,-0.371667,-0.283105,0.055531,0.064075,-0.0715,0.0367125,
36504491157491,-0.2649070620536804,-0.07132374476641416,9.567627968744082,0.34002301245927813,0.16113233113464973,0.22462656497955322,-0.007979227229952812,-0.02681249938905239,-0.011465396732091904,0.0,1791183707141,-0.13095,9.05805,3.078,0.181823,9.32608,3.005188,-0.354425,-0.288834,0.053921,0.0407,-0.0268125,0.054725,
36504501151645,-0.18827369809150696,-0.06647232454270124,9.661677244196934,0.32216640934348106,0.15599557544209727,0.22734414935112,0.026582792401313782,0.005087499972432852,-0.0046129655092954636,0.0,1791183707150,0.0,9.16395,3.0610502,0.187039,9.326262,3.004308,-0.287814,-0.224372,0.10029,0.0193875,0.0050875,0.0697125,
36504511145863,-0.12255057692527771,-0.05758946966379881,9.7010679614956,0.2628356717526913,0.1472458565636562,0.21579009890556336,0.0461512953042984,0.025299999862909317,3.584561636671424E-4,0.0,1791183707159,-0.057000004,9.168,3.1710002,0.192853,9.32597,3.004845,-0.250533,-0.164225,0.126089,0.0034375,0.0253,0.071775,
36504521140236,-0.09163393080234528,-0.050078879855573175,9.787224312665765,0.17842610850930216,0.14136960834932502,0.18528761565685273,0.07681664824485779,0.05403750017285347,3.2405892852693796E-4,0.0,1791183707169,0.13605,9.292951,3.0679502,0.198821,9.325433,3.006126,-0.153551,-0.130169,0.115231,0.0044,0.0540375,0.082499996,
36504531134377,0.03232664242386818,-0.046424060687422754,9.888875956538511,0.08756683170795442,0.142503364744236,0.12700772508978844,0.050560057163238525,0.030662499368190765,-0.0035313195548951626,0.0,1791183707179,0.28695002,9.43395,2.9509501,0.206275,9.325559,3.005238,0.020954,0.027721,0.017957,0.016224999,0.0306625,0.0686125,
36504541128610,0.0872361958026886,-0.04669433608651161,9.866222276793073,0.023671272397041317,0.14224424340014605,0.056579073518514635,9.245006367564201E-4,-0.012924999929964542,-0.008624504320323467,0.0,1791183707190,0.24300002,9.463051,2.7810001,0.213392,9.326681,3.001252,0.044961,0.136733,-0.143255,0.031075,-0.012925,0.040975,
36504551122759,0.056029193103313446,-0.0499791357666254,9.851589043219949,0.11206348612904549,0.1390395061165215,0.0077184952795505525,-0.05578762665390968,-0.06407500058412552,-0.011109910905361176,0.0,1791183707199,0.18105,9.489,2.6419501,0.218875,9.328615,2.994841,-0.010798,0.149164,-0.280497,0.0374,-0.064075,0.0143,
36504561117143,-0.0014737248420715332,-0.05606323629617691,9.738721869451881,0.17389084175229075,0.1340314097673167,0.016496875137090684,-0.09777425229549408,-0.1013374999165535,-0.007010369095951319,0.0,1791183707209,0.049950004,9.38595,2.59695,0.222802,9.330646,2.988218,-0.105705,0.123191,-0.381613,0.02255,-0.1013375,-0.0059125,
36504571111363,-0.11483995616436005,-0.07094508484005928,9.650299462609361,0.20281271263957024,0.12273130632580767,0.01185567006468773,-0.09771041572093964,-0.10023749619722366,0.0020611772779375315,0.0,1791183707219,-0.13095,9.286051,2.6230502,0.225065,9.331899,2.984132,-0.254015,0.007016,-0.379921,-0.0072875,-0.100237496,-0.006875,
36504581105523,-0.17659196257591248,-0.08868858143687249,9.662867365739322,0.19469851404428482,0.11045631934151973,0.029928050935268402,-0.0647585541009903,-0.07150000333786011,0.013896096497774124,0.0,1791183707230,-0.18405001,9.24495,2.805,0.226279,9.331848,2.984197,-0.41564,-0.079124,-0.300978,-0.04455,-0.0715,0.0143,
36504591099936,-0.10919108986854553,-0.09746500998735427,9.74858294701629,0.15813064128160476,0.10460849116134067,0.06921350806951523,-0.022961053997278214,-0.0364375002682209,0.02368083782494068,0.0,1791183707239,-0.14295001,9.264001,3.0319502,0.228953,9.3301,2.989452,-0.394372,-0.07977,-0.078783,-0.07425,-0.0364375,0.0441375,
36504601094179,0.012258674949407578,-0.09832015056163072,9.86057513734498,0.13782248720526696,0.10363359252538694,0.0779676117002964,0.018606338649988174,-0.0034374999813735485,0.02820516750216484,0.0,1791183707250,-0.045,9.307051,3.2569501,0.234356,9.327139,2.99826,-0.33992,-0.028924,0.156616,-0.086075,-0.0034375,0.0782375,
36504611088335,0.10215684026479721,-0.09407917596399784,9.941163713139828,0.12804611697793006,0.1098301141510576,0.057241498678922656,0.05044044554233551,0.021037500351667404,0.024071302264928818,0.0,1791183707261,0.0019500001,9.35505,3.3630002,0.242408,9.323898,3.007687,-0.264175,0.015016,0.307601,-0.0699875,0.0210375,0.104775,
36504621082725,0.17111875116825104,-0.08271891735494137,10.009916764992001,0.126957967877388,0.12400775401196891,4.97572124004364E-5,0.07365384697914124,0.03698749840259552,0.014683245681226254,0.0,1791183707269,0.126,9.429001,3.35805,0.252637,9.321237,3.015083,-0.19779,0.070351,0.355272,-0.0369875,0.0369875,0.12815,
36504631076983,0.20691728591918945,-0.06781018152832985,10.01949126997849,0.13323116600513457,0.13909156643400433,0.07665209248661994,0.07989922165870667,0.03698749840259552,0.0038939048536121845,0.0,1791183707279,0.22005,9.4800005,3.2359502,0.26567,9.31983,3.01831,-0.083929,0.129219,0.280219,1.375E-4,0.0369875,0.1452,
36504641071158,0.215171217918396,-0.05222364813089371,10.090013303589807,0.1492430493235588,0.15187534832680066,0.14152455404400827,0.060945503413677216,0.01251249946653843,-0.006741584278643131,0.0,1791183707289,0.351,9.5779505,3.15405,0.281282,9.319845,3.016849,0.024956,0.172299,0.164363,0.0364375,0.0125124995,0.155925,
36504651065542,0.34628161787986755,-0.026175278425216674,10.15623159806343,0.19183226749300955,0.17198278278945744,0.20832914263010024,0.007729634642601013,-0.04386249929666519,-0.017605924978852272,0.0,1791183707299,0.45405003,9.658951,3.1060503,0.299585,9.321197,3.010906,0.131152,0.324176,0.110452,0.0726,-0.0438625,0.153725,
36504661059752,0.36985504627227783,0.0013335153460502624,10.163166831436083,0.25001311376690866,0.18834888426745783,0.2618687838315964,-0.05660238862037659,-0.10766249895095825,-0.02977927401661873,0.0,1791183707310,0.54,9.69495,3.0010502,0.319309,9.323901,3.000489,0.197619,0.366961,0.046649,0.111925,-0.1076625,0.137775,
36504671053908,0.32164645195007324,0.029623155295848847,10.114060419714907,0.3219023749232292,0.1918124062778608,0.2919743239879608,-0.10410849750041962,-0.15138749778270721,-0.03823792189359665,0.0,1791183707319,0.59505004,9.68595,2.8500001,0.338849,9.327841,2.986066,0.21878,0.351051,-0.065821,0.13859999,-0.1513875,0.1155,
36504681048297,0.2326110452413559,0.0542073480784893,9.947780322766116,0.3663265839219093,0.18460918939687693,0.2971130758523941,-0.1283522993326187,-0.16940000653266907,-0.038936909288167953,0.0,1791183707329,0.61005,9.55095,2.7139502,0.357388,9.332375,2.969687,0.267279,0.296238,-0.195488,0.1395625,-0.1694,0.0919875,
36504691042542,0.06838370859622955,0.0708718866109848,9.803343602853463,0.3457231856882572,0.16947328428825373,0.2677555739879608,-0.11434511840343475,-0.14602500200271606,-0.032451871782541275,0.0,1791183707340,0.61005,9.451051,2.532,0.373281,9.336699,2.9541,0.244203,0.167415,-0.33313,0.1161875,-0.146025,0.0675125,
36504701036915,-0.05059248208999634,0.07775594741106033,9.767918691879844,0.2456222526729107,0.16141146717010135,0.18838075399398804,-0.09296636283397675,-0.11508750170469284,-0.019631903618574142,0.0,1791183707350,0.60705,9.4459505,2.4120002,0.386068,9.340312,2.941008,0.217051,0.096765,-0.504391,0.0715,-0.1150875,0.0463375,
36504711031069,-0.07401478290557861,0.0801827371120453,9.751140022482495,0.0996565453708172,0.15872414740740928,0.09960678815841675,-0.08285414427518845,-0.09597499668598175,-0.005367721430957317,0.0,1791183707360,0.61905,9.427051,2.4150002,0.395993,9.342684,2.932147,0.197549,0.080028,-0.529049,0.02145,-0.095975,0.0259875,
36504721025307,-0.02692374587059021,0.08341824635863304,9.830203588141021,0.04675934389233589,0.1558217828684729,0.029892748594284056,-0.09393476694822311,-0.09817499667406082,0.005731012672185898,0.0,1791183707369,0.73695004,9.468,2.53905,0.40409,9.343738,2.927681,0.275644,0.107705,-0.471911,-0.018975,-0.098175,0.0015125,
36504731019703,0.061133839190006256,0.08485860619693994,9.890017354413501,0.14592724665999413,0.15547561069298693,0.0044026926159858705,-0.12908971309661865,-0.12155000120401382,0.012011154554784298,0.0,1791183707379,0.77295005,9.469951,2.7450001,0.4104,9.343589,2.927274,0.367495,0.13419,-0.275179,-0.0455125,-0.12155,-0.0378125,
36504741013857,0.07345309108495712,0.08416945096105337,9.847472593399893,0.2117179587483406,0.15549409065154177,0.0033888161182403565,-0.14758843183517456,-0.12691250443458557,0.014700623229146004,0.0,1791183707389,0.70095,9.38895,2.8860002,0.412893,9.342556,2.930218,0.314724,0.099309,-0.115318,-0.0605,-0.1269125,-0.0804375,
36504751008095,-0.003749833209440112,0.0811804996454157,9.782017943128256,0.25588907017372553,0.15657705680724823,0.005979713657870889,-0.140300914645195,-0.10876250267028809,0.016583655029535294,0.0,1791183707399,0.57900006,9.292951,2.9989502,0.411012,9.340916,2.935704,0.232809,-0.011577,-0.008276,-0.0710875,-0.1087625,-0.1123375,
36504761002459,-0.05693487077951431,0.07840744234854355,9.706755380127733,0.28257862790487703,0.15849571479301225,0.009395696083083748,-0.11482906341552734,-0.07686249911785126,0.01931200921535492,0.0,1791183707411,0.43995002,9.196951,3.0730503,0.405315,9.338737,2.943422,0.118796,-0.090801,0.082168,-0.0818125,-0.0768625,-0.1271875,
36504770996598,-0.11251839995384216,0.07852352015906945,9.646182036579818,0.3048363105859607,0.15835493091480704,0.007723234733566642,-0.08644002676010132,-0.04592499881982803,0.022271187976002693,0.0,1791183707419,0.32205,9.111,3.1519501,0.397025,9.336002,2.953206,-0.004595,-0.171863,0.170546,-0.091299996,-0.045925,-0.1293875,
36504780990826,-0.19489938020706177,0.07760814927751199,9.566835829404916,0.32668545260094106,0.15987262081688264,0.05892987861298025,-0.05121809244155884,-0.010862499475479126,0.023425962775945663,0.0,1791183707429,0.16005,9.042001,3.1210501,0.38703,9.332946,2.964172,-0.131069,-0.259786,0.190705,-0.0935,-0.0108624995,-0.122925,
36504790985180,-0.2711089849472046,0.06951225452357904,9.516869212019342,0.3162230478134006,0.17271130702073223,0.1278422938194126,-0.0291166752576828,0.008249999955296516,0.02382821962237358,0.0,1791183707440,-0.01905,9.019951,3.0349503,0.375416,9.330066,2.974718,-0.346904,-0.300002,0.091573,-0.0924,0.00825,-0.1101375,
36504800979296,-0.30672723054885864,0.05356295924866572,9.505243016827471,0.28804456144571305,0.19102021997872137,0.1884377732872963,-0.013839934021234512,0.01677500084042549,0.027218099683523178,0.0,1791183707452,-0.009000001,9.027,2.97705,0.36462,9.327229,2.98494,-0.355262,-0.309136,0.002342,-0.099825,0.016775,-0.0856625,
36504810973528,-0.30293944478034973,0.03330814499640837,9.507044290832019,0.26753143668174745,0.20570633651066397,0.23763868808746338,-0.005181659013032913,0.021037500351667404,0.030252505093812943,0.0,1791183707460,-0.012,9.042001,2.937,0.355462,9.324235,2.995382,-0.370046,-0.289382,-0.046406,-0.10725,0.0210375,-0.0697125,
36504820967658,-0.25266915559768677,0.012118749658111484,9.5761824656377,0.26126614660024644,0.2121453960610921,0.2656688392162323,-0.009400580078363419,0.0147124994546175,0.03195350244641304,0.0,1791183707470,0.0019500001,9.1369505,2.86695,0.347438,9.321232,3.00565,-0.335686,-0.221736,-0.097375,-0.1115125,0.014712499,-0.0633875,
36504830962047,-0.20332249999046326,-0.008393239637371153,9.687868068211127,0.2639646470546722,0.2121517157156493,0.2673534631729126,-0.03243210166692734,-0.008662499487400055,0.03368814289569855,0.0,1791183707479,0.022950001,9.24705,2.8890002,0.340224,9.318385,3.015285,-0.309318,-0.144669,-0.178836,-0.116875,-0.0086624995,-0.06545,
36504840956295,-0.052052952349185944,-0.021754448150750248,9.792844195089945,0.22952197031117977,0.20597593009803203,0.22354225665330887,-0.08772565424442291,-0.06407500058412552,0.033561140298843384,0.0,1791183707489,0.021000002,9.274051,3.14505,0.333901,9.315317,3.02545,-0.300601,-0.036256,-0.023802,-0.116875,-0.064075,-0.073975,
36504850950694,0.030698038637638092,-0.03753362711286172,9.849943077907904,0.16545289889909326,0.18852622407660075,0.15605720281600952,-0.12869282066822052,-0.10559999942779541,0.026239443570375443,0.0,1791183707499,0.042000003,9.25905,3.3600001,0.328338,9.312057,3.036077,-0.285462,-0.035391,0.238509,-0.0935,-0.1056,-0.0814,
36504860944838,0.01935083419084549,-0.05505883771693334,9.827045018190649,0.08387591228820383,0.1646162801627745,0.09159914702177048,-0.1346224993467331,-0.11192499846220016,0.016310498118400574,0.0,1791183707510,0.006,9.23805,3.351,0.323047,9.309292,3.045118,-0.275382,-0.073327,0.31566,-0.0614625,-0.111925,-0.0845625,
36504870939057,-0.023354560136795044,-0.07230888832127676,9.754855507564633,0.013193650683388118,0.14055557529484702,0.04573622792959213,-0.1330510973930359,-0.11096250265836716,0.010109718888998032,0.0,1791183707519,-0.11895001,9.19005,3.2689502,0.317002,9.307349,3.051678,-0.3675,-0.097721,0.261216,-0.041249998,-0.1109625,-0.0845625,
36504880933430,-0.08419349789619446,-0.08814911547815427,9.681442351716703,0.10593186630867421,0.12191476880644658,0.02191042751073837,-0.11533966660499573,-0.09707500040531158,0.008307171985507011,0.0,1791183707530,-0.19605,9.1369505,3.1950002,0.310462,9.305903,3.056759,-0.485458,-0.134582,0.189098,-0.033825,-0.097075,-0.0708125,
36504890927575,-0.17015491425991058,-0.10007604662096128,9.65089402117488,0.142906953394413,0.11760986552028985,0.0455308198928833,-0.0873173177242279,-0.07576250284910202,0.011178821325302124,0.0,1791183707540,-0.22995001,9.118051,3.15405,0.304809,9.304523,3.061527,-0.537266,-0.197845,0.110108,-0.0402875,-0.0757625,-0.0452375,
36504900921807,-0.1718597561120987,-0.10613941032206639,9.685752103814718,0.15159630924463274,0.11802766615421012,0.08604237884283066,-0.0672421082854271,-0.06407500058412552,0.01579420454800129,0.0,1791183707549,-0.17895001,9.12495,3.2430003,0.301372,9.302726,3.067328,-0.497915,-0.205624,0.123461,-0.051975,-0.064075,-0.0154,
36504910916175,-0.08377749472856522,-0.10662754591321573,9.774200224668835,0.1590007945895195,0.11791392996831405,0.1066680446267128,-0.0492698960006237,-0.05348749831318855,0.017260530963540077,0.0,1791183707560,-0.10695001,9.183001,3.3460503,0.300709,9.300399,3.074436,-0.461339,-0.148231,0.226486,-0.0540375,-0.0534875,0.0100375,
36504920910344,-0.023928366601467133,-0.10647777694975957,9.77942266091676,0.16057065725326536,0.11801692834381917,0.10678280591964721,-0.029153190553188324,-0.03959999978542328,0.015624437481164932,0.0,1791183707569,-0.028050002,9.204,3.3049502,0.302564,9.298018,3.081451,-0.365032,-0.100359,0.262567,-0.0466125,-0.0396,0.03135,
36504930904576,-0.013155773282051086,-0.11019225757336244,9.798914564929959,0.13096699565649034,0.11377594268818697,0.09257526099681854,-0.017743144184350967,-0.03217500075697899,0.012726234272122383,0.0,1791183707581,0.021000002,9.24495,3.24795,0.306133,9.296096,3.086888,-0.318323,-0.064919,0.185305,-0.036025,-0.032175,0.0441375,
36504940898958,-0.02059793472290039,-0.11489480886375532,9.802229452260958,0.09339333772659301,0.1078792268052876,0.0626638650894165,-0.0058480966836214066,-0.022549999877810478,0.01234029047191143,0.0,1791183707589,0.08505,9.26895,3.1879501,0.310887,9.294478,3.091287,-0.270405,-0.056119,0.130626,-0.033825,-0.02255,0.0526625,
36504950893112,-0.04361922666430473,-0.11688827853649855,9.793846615106203,0.05458338782191277,0.10616168708627492,0.03701575919985771,0.009895515628159046,-0.007699999958276749,0.012902981601655483,0.0,1791183707599,0.15,9.286051,3.10905,0.316398,9.293082,3.094925,-0.189724,-0.052329,0.038404,-0.034925,-0.0077,0.058025,
36504960887345,0.03595876693725586,-0.11224359665066004,9.87973972467327,0.032667721062898634,0.1106215220723461,0.013068506866693497,0.014667151495814323,-0.0012374999932944775,0.015886075794696808,0.0,1791183707610,0.21195,9.35295,3.17595,0.322119,9.291563,3.098891,-0.142773,0.030592,0.036832,-0.04455,-0.0012375,0.054725,
36504970881504,0.08035468310117722,-0.10259994249790907,9.87429571301377,0.029698530584573744,0.11831661832773223,0.007788103073835373,0.016211433336138725,0.0019249999895691872,0.016799932345747948,0.0,1791183707619,0.22200002,9.319051,3.2569501,0.32784,9.289682,3.103918,-0.110187,0.049232,0.117996,-0.0477125,0.001925,0.0504625,
36504980875963,0.07173933833837509,-0.08926800657063723,9.866074820766627,0.07029794529080391,0.12212629360213846,0.024767125397920607,0.02831868641078472,0.015812499448657036,0.014356132596731186,0.0,1791183707629,0.26700002,9.304951,3.2689502,0.332929,9.287726,3.109228,-0.081757,0.020064,0.174936,-0.0402875,0.0158125,0.0463375,
36504990870143,0.045036431401968,-0.0734607357531786,9.80892873183721,0.12393637746572495,0.11795566459652859,0.03789399862289429,0.02709079161286354,0.015812499448657036,0.009797066450119019,0.0,1791183707639,0.16905001,9.279,3.17595,0.337423,9.286275,3.113082,-0.112587,0.014332,0.111226,-0.0264,0.0158125,0.040975,
36505000864562,-0.042404089123010635,-0.06024457868188619,9.720543955963114,0.14480507075786592,0.1051971239528823,0.03813702613115311,0.008746842853724957,-0.004537499975413084,0.004436680115759373,0.0,1791183707649,0.078,9.23295,3.039,0.341264,9.28565,3.114522,-0.209802,-0.03532,-0.005135,-0.00935,-0.0045375,0.042075,
36505010858723,-0.10200060158967972,-0.05019763652235269,9.671559660533136,0.11732795834541321,0.09004239119507726,0.01054515242576599,-0.02202850580215454,-0.040699999779462814,4.236052045598626E-4,0.0,1791183707659,0.054,9.21405,2.93895,0.346183,9.285862,3.113348,-0.264999,-0.052291,-0.135642,0.0044,-0.0407,0.0515625,
36505020852961,-0.16134503483772278,-0.045631430484354495,9.631098363860984,0.05478046983480453,0.081576549205798,0.03779479116201401,-0.06375138461589813,-0.08855000138282776,-0.0012037355918437243,0.0,1791183707669,0.054,9.207001,2.8260002,0.353024,9.286628,3.110296,-0.314936,-0.076999,-0.242723,0.0108624995,-0.08855,0.0622875,
36505030847331,-0.154649555683136,-0.043197783268988134,9.681653194270204,0.02040870487689972,0.07745795409479236,0.08307256996631622,-0.10512497276067734,-0.13323749601840973,0.002067097695544362,0.0,1791183707679,0.09,9.255,2.841,0.362168,9.287428,3.106849,-0.27859,-0.053857,-0.294342,0.0012375,-0.1332375,0.06655,
36505040841483,-0.10468950867652893,-0.045829611085355285,9.766320836194804,0.0760019987821579,0.07859993033459911,0.1130177579820156,-0.1219855397939682,-0.15138749778270721,0.0076634446159005165,0.0,1791183707689,0.25800002,9.31005,2.93895,0.372995,9.287586,3.105097,-0.184072,-0.032467,-0.211188,-0.0158125,-0.1513875,0.0697125,
36505050835735,0.001792367547750473,-0.047274894639849664,9.829311419549102,0.09110995978116988,0.07743661141792867,0.10417846664786339,-0.11822996288537979,-0.1438249945640564,0.013120483607053757,0.0,1791183707699,0.33,9.33405,3.0630002,0.3845,9.286877,3.105814,-0.080655,0.040067,-0.104166,-0.033825,-0.143825,0.0611875,
36505060830127,0.08314058184623718,-0.04408540725708008,9.893771844300899,0.07493833303451539,0.08133090677208771,0.06715022996068001,-0.10369224101305008,-0.12264999747276306,0.016258783638477325,0.0,1791183707709,0.30105,9.37005,3.1620002,0.394527,9.285461,3.108787,-0.061952,0.086973,0.010176,-0.0455125,-0.12265,0.0452375,
36505070824374,0.09620566666126251,-0.0381073959171772,9.887965869588715,0.040407215058803556,0.08684221696117549,0.01564008966088295,-0.0783163383603096,-0.0906125009059906,0.01740150898694992,0.0,1791183707719,0.32205,9.37395,3.1300502,0.401942,9.283716,3.113042,-0.064578,0.088718,0.046623,-0.050875,-0.0906125,0.03025,
36505080818547,0.031095445156097412,-0.032342948764562604,9.83255840364262,0.01638508811593056,0.08741622856544552,0.02150891050696373,-0.058246564120054245,-0.06517499685287476,0.01931767351925373,0.0,1791183707729,0.28395,9.33405,3.078,0.407117,9.281964,3.117601,-0.122426,0.04498,-0.020184,-0.0583,-0.065175,0.0185625,
36505090812932,0.04309584200382233,-0.02168041095137596,9.894436862492263,0.012928954511880877,0.08284232595680689,0.051065980643033984,-0.05989335477352142,-0.06297499686479568,0.02162971720099449,0.0,1791183707739,0.30795002,9.337951,3.2569501,0.410835,9.279982,3.123005,-0.111778,0.044568,0.017506,-0.066825,-0.062975,0.007975,
36505100807151,0.17942100763320923,-0.004116372764110565,9.994511036946294,0.07604655623435974,0.08630615722346567,0.08659170866012574,-0.06874042749404907,-0.06833750009536743,0.018766967579722404,0.0,1791183707749,0.38205,9.38595,3.4129503,0.413951,9.277565,3.129772,-0.05504,0.111628,0.238188,-0.0594,-0.0683375,-0.0048125,
36505110801302,0.19003508985042572,0.009574256464838981,9.97459761146534,0.14576540142297745,0.0939615040861597,0.10797061026096344,-0.056292783468961716,-0.050187498331069946,0.012624237686395645,0.0,1791183707759,0.36795002,9.37905,3.3750002,0.415602,9.275434,3.135859,-0.044719,0.111366,0.270408,-0.04235,-0.0501875,-0.0218625,
36505120795701,0.14511162042617798,0.018026255816221238,9.906909464547434,0.20082437098026273,0.09808019943373338,0.11775180101394653,-0.0496203750371933,-0.03849999979138374,0.0065041352063417435,0.0,1791183707769,0.31305,9.349951,3.2599502,0.415111,9.274123,3.139799,-0.063382,0.093522,0.185066,-0.0253,-0.0385,-0.0378125,
36505130789930,0.08788622915744781,0.023078355938196182,9.880495865384752,0.2421277157962322,0.09894244110666575,0.1291099578142166,-0.05114857107400894,-0.0364375002682209,0.003999253734946251,0.0,1791183707779,0.20805001,9.361951,3.1519501,0.41261,9.273536,3.141865,-0.149466,0.082139,0.051319,-0.018975,-0.0364375,-0.0495,
36505140784086,0.08353100717067719,0.02828480303287506,9.859054408436153,0.24137545749545097,0.09924638428956746,0.13719699084758757,-0.053954415023326874,-0.03739999979734421,0.00516715832054615,0.0,1791183707789,0.069000006,9.34305,3.147,0.408334,9.273267,3.143211,-0.262506,0.101561,-0.005093,-0.0232375,-0.0374,-0.0548625,
36505150778450,0.0484669953584671,0.03288911413401365,9.792655927388818,0.1781564183533192,0.09793110682441583,0.11100618839263916,-0.05595507472753525,-0.04166249930858612,0.008241427130997181,0.0,1791183707799,0.010950001,9.264001,3.1740003,0.403587,9.272675,3.145569,-0.327191,0.059058,0.018884,-0.0317625,-0.0416625,-0.0474375,
36505160772698,-0.030874377116560936,0.029547456931322814,9.729074701009548,0.08246438466012479,0.09890476739470822,0.06682429499924183,-0.049548834562301636,-0.03849999979138374,0.011805364862084389,0.0,1791183707810,-0.048,9.19005,3.1930501,0.399206,9.271594,3.149317,-0.406608,-0.03084,0.04626,-0.041249998,-0.0385,-0.0356125,
36505170767078,-0.10054871439933777,0.020502287056297065,9.71984142963951,0.0038166824728250517,0.10206625247124711,0.01769222803413868,-0.04529419541358948,-0.040699999779462814,0.014026486314833164,0.0,1791183707819,-0.08595,9.148951,3.28095,0.395854,9.270075,3.154204,-0.477476,-0.117907,0.094046,-0.0455125,-0.0407,-0.0154,
36505180761232,-0.07456876337528229,0.013186881970614194,9.763255561648403,0.06586475111544132,0.1033666687199544,0.014798770472407342,-0.046117547899484634,-0.050187498331069946,0.012999261729419231,0.0,1791183707829,-0.061950002,9.156,3.38895,0.394745,9.268341,3.159438,-0.46679,-0.116173,0.167821,-0.0391875,-0.0501875,0.009075,
36505190755451,-0.0582992285490036,0.008020098973065614,9.759095640207054,0.12975652627646922,0.10422459434139901,0.0431648176163435,-0.04928072541952133,-0.06187500059604645,0.008416063152253628,0.0,1791183707839,0.028050002,9.109051,3.5020502,0.396469,9.266632,3.164229,-0.442177,-0.136012,0.273163,-0.0221375,-0.061875,0.03135,
36505200749818,-0.015873461961746216,0.009346630331128836,9.843874761198611,0.1640035193413496,0.10374209153296994,0.05603290908038616,-0.061850421130657196,-0.08112499862909317,7.595133502036333E-5,0.0,1791183707849,0.17895001,9.151951,3.6210003,0.401584,9.265227,3.167697,-0.282093,-0.14179,0.401377,0.0055,-0.081125,0.0452375,
36505210743953,0.028596840798854828,0.015876502450555562,9.867334526997617,0.16189046651124955,0.10059026072672402,0.04413866549730301,-0.06202622503042221,-0.08428750187158585,-0.010738293640315533,0.0,1791183707859,0.30600002,9.18795,3.5850003,0.408873,9.264619,3.168548,-0.167278,-0.112451,0.438832,0.0396,-0.0842875,0.0495,
36505220738181,0.0584762841463089,0.026867568399757145,9.865407884311368,0.1414436236023903,0.09229279727289598,0.012333665788173676,-0.04640565812587738,-0.0672374963760376,-0.017404356971383095,0.0,1791183707869,0.39000002,9.204,3.5299501,0.416614,9.264898,3.166717,-0.060097,-0.06724,0.385597,0.0598125,-0.0672375,0.0452375,
36505230732555,0.021507568657398224,0.03567542461678386,9.803788709689508,0.13031539022922514,0.08242812178141479,0.006881600618362427,-0.01905819959938526,-0.035337500274181366,-0.019812939688563347,0.0,1791183707879,0.40905002,9.166051,3.45405,0.423179,9.265642,3.163671,-0.037932,-0.094321,0.347941,0.0661375,-0.0353375,0.0356125,
36505240726707,0.004114717245101929,0.0411156359128654,9.762166135331205,0.09164179861545563,0.07635108086356061,0.019364389777183532,0.011628041043877602,-2.749999985098839E-4,-0.019429616630077362,0.0,1791183707889,0.363,9.168,3.3340502,0.4281,9.266667,3.160005,-0.021305,-0.076192,0.239079,0.064075,-2.75E-4,0.0281875,
36505250720950,-0.08514976501464844,0.03676852928474546,9.668824513626772,0.06131516583263875,0.08081102532960015,0.005509129166603089,0.03354744240641594,0.025299999862909317,-0.01794654317200184,0.0,1791183707899,0.31995,9.12495,3.18105,0.430736,9.267929,3.155939,-0.105344,-0.115761,0.089917,0.0587125,0.0253,0.0218625,
36505260715335,-0.1530839055776596,0.024957304913550617,9.600902920986817,0.04851924814283848,0.08991994095802927,0.0308270201086998,0.04370935261249542,0.03698749840259552,-0.016640396788716316,0.0,1791183707909,0.22905001,9.115951,3.0040503,0.43228,9.269515,3.151067,-0.152377,-0.136501,-0.05365,0.054449998,0.0369875,0.0196625,
36505270709540,-0.22131037712097168,0.009081502724438906,9.55331307636624,0.07198558188974857,0.10301517749775443,0.08678435236215591,0.04650004953145981,0.038087498396635056,-0.014296256005764008,0.0,1791183707919,0.15705001,9.13305,2.79795,0.43302,9.271519,3.145069,-0.253674,-0.138504,-0.246371,0.048125,0.0380875,0.0259875,
36505280703709,-0.26121312379837036,-0.005533925723284483,9.51112620158121,0.10016367323696612,0.11843666923495173,0.14332849085330962,0.02077976055443287,0.008249999955296516,-0.009734813123941422,0.0,1791183707929,0.20505,9.13305,2.6470501,0.435081,9.273756,3.138182,-0.234187,-0.119194,-0.431021,0.0353375,0.00825,0.0356125,
36505290698088,-0.27293041348457336,-0.021335238497704266,9.554704885740543,0.14270460791885853,0.13127971854771914,0.1987375169992447,-0.026911934837698936,-0.042762499302625656,-0.004056145437061787,0.0,1791183707940,0.22905001,9.172951,2.664,0.439428,9.275713,3.131779,-0.228958,-0.116362,-0.47729,0.0182875,-0.0427625,0.039875,
36505300692330,-0.22983418405056,-0.04179799808189273,9.599075105122688,0.18353573530912398,0.13028459989182103,0.227674400806427,-0.06720712035894394,-0.08538749814033508,5.096914246678352E-4,0.0,1791183707952,0.29595003,9.20205,2.7160501,0.445697,9.277108,3.126756,-0.206495,-0.089027,-0.426777,0.0044,-0.0853875,0.042075,
36505310686699,-0.20931437611579895,-0.06176547138020396,9.605330379864284,0.22658682912588118,0.12365732809470432,0.23892049491405487,-0.09747207164764404,-0.11618749797344208,0.005577240139245987,0.0,1791183707959,0.28695002,9.18,2.81205,0.453482,9.277855,3.123422,-0.164003,-0.080197,-0.394712,-0.01155,-0.1161875,0.040975,
36505320680852,-0.15091657638549805,-0.07656688122078777,9.70725714032097,0.23172333538532258,0.11545363778903789,0.22484173476696015,-0.11203198879957199,-0.13007499277591705,0.01023815292865038,0.0,1791183707969,0.33195,9.23805,2.9629502,0.461609,9.277752,3.122538,-0.143399,-0.072912,-0.235811,-0.0264,-0.130075,0.038775,
36505330675083,-0.02623140625655651,-0.08227276299148797,9.831813085626218,0.1972097810357809,0.10987004650167888,0.17784539125859739,-0.11405979841947556,-0.13007499277591705,0.01239072997123003,0.0,1791183707979,0.44505003,9.312,3.1230001,0.469943,9.276908,3.123801,-0.079907,0.002152,-0.076663,-0.033825,-0.130075,0.03355,
36505340669472,0.09850762784481049,-0.08152393195778132,9.938137660717508,0.1090669121593237,0.11104233132418859,0.1035577829927206,-0.12275486439466476,-0.13323749601840973,0.013307441957294941,0.0,1791183707989,0.507,9.37695,3.25305,0.478123,9.275545,3.126607,0.029228,0.080129,0.066577,-0.0391875,-0.1332375,0.0165,
36505350663713,0.162258118391037,-0.07583437580615282,9.979950986742134,0.005687697604298592,0.12010258382355943,0.025139322504401207,-0.11156336963176727,-0.11192499846220016,0.012979965656995773,0.0,1791183707999,0.492,9.393001,3.3360002,0.483472,9.273861,3.130775,0.004725,0.110544,0.179724,-0.04235,-0.111925,-0.0111375,
36505360657861,0.1659207046031952,-0.06599462172016501,9.924744651740676,0.13669204600155355,0.13095425060570012,0.04990769363939762,-0.08597642928361893,-0.07686249911785126,0.014619646593928337,0.0,1791183708009,0.39705002,9.336,3.3439503,0.485222,9.271955,3.136152,-0.049696,0.107662,0.207866,-0.050875,-0.0768625,-0.03355,
36505370652246,0.09073013067245483,-0.05643067946657539,9.84955819437484,0.2415655259042978,0.13500362919141423,0.0982370350509882,-0.05125761777162552,-0.0364375002682209,0.019357426092028618,0.0,1791183708019,0.25995,9.267,3.3270001,0.48351,9.269646,3.143232,-0.182059,0.038145,0.198392,-0.066825,-0.0364375,-0.042075,
36505380646400,-5.332045257091522E-4,-0.052728901524096726,9.8189119477255,0.30211419239640236,0.13546975166346814,0.10337667539715767,-0.01910741627216339,-0.0012374999932944775,0.02451193332672119,0.0,1791183708029,0.16695,9.22095,3.3700502,0.479502,9.266824,3.152153,-0.242695,-0.050012,0.182288,-0.082775,-0.0012375,-0.043175,
36505390640619,0.011138193309307098,-0.049257030431181195,9.801265325137198,0.313577189296484,0.136170476204795,0.08590278849005699,0.019921481609344482,0.03698749840259552,0.028918426483869553,0.0,1791183708040,0.07395,9.192,3.4009502,0.473881,9.26344,3.162927,-0.356784,-0.051417,0.238553,-0.0944625,0.0369875,-0.032449998,
36505400635015,-0.047012947499752045,-0.050814004708081485,9.803232138574382,0.2829690702259541,0.1359577253566865,0.04404857531189919,0.039945948868989944,0.05087500065565109,0.03006516769528389,0.0,1791183708049,0.054,9.172951,3.45795,0.468625,9.259798,3.17436,-0.413777,-0.112419,0.243878,-0.0944625,0.050875,-0.0111375,
36505410629183,0.028032831847667694,-0.05084220515564084,9.847824222098781,0.24131273552775384,0.13594130848066407,0.016471000760793685,0.027809277176856995,0.02956249937415123,0.026046793907880783,0.0,1791183708059,0.07095,9.192,3.5329502,0.465924,9.256248,3.18509,-0.396711,-0.058589,0.314551,-0.0785125,0.0295625,0.0111375,
36505420623411,0.07662743330001831,-0.04993464769795537,9.899598673408063,0.19149585254490376,0.13672642217996445,0.01365046128630638,0.01125679723918438,0.003987499978393316,0.017660142853856087,0.0,1791183708069,0.093,9.21195,3.624,0.465983,9.253231,3.193841,-0.384799,-0.036419,0.39678,-0.049775,0.0039875,0.03025,
36505430617792,0.10992300510406494,-0.045513875875622035,9.92466016510341,0.1392994862049818,0.14034634032531468,0.0357417032122612,-0.009147847071290016,-0.02474999986588955,0.005934670101851225,0.0,1791183708079,0.16005,9.252001,3.588,0.46879,9.251173,3.199384,-0.34451,-0.008026,0.410391,-0.01155,-0.02475,0.0452375,
36505440612016,0.10080812871456146,-0.04067920530214906,9.921819956080563,0.07881501279771327,0.1436004101378628,0.053675690293312074,-0.025420617312192917,-0.04702499881386757,-0.004719470627605915,0.0,1791183708090,0.22200002,9.25695,3.5640001,0.473935,9.250283,3.201193,-0.296983,-0.011924,0.387034,0.02255,-0.047025,0.054725,
36505450606185,0.08226591348648071,-0.0323084213770926,9.86348219916097,0.029623768851160998,0.14562932859105948,0.07953146249055862,-0.03221932053565979,-0.05664999783039093,-0.01251133717596531,0.0,1791183708099,0.27495003,9.216001,3.5040002,0.480417,9.250308,3.200155,-0.253187,-0.021526,0.352159,0.047025,-0.056649998,0.058025,
36505460600556,0.014881215989589691,-0.023910165298730135,9.74220924462411,0.021335895732045182,0.14324586505470555,0.07690113931894302,-0.018517768010497093,-0.042762499302625656,-0.016269046813249588,0.0,1791183708109,0.28695002,9.139951,3.3600001,0.487274,9.251001,3.197117,-0.204977,-0.058132,0.245063,0.0587125,-0.0427625,0.058025,
36505470594785,-0.14358088374137878,-0.02002369062975049,9.601056409148335,0.07051719948649407,0.13882357519950989,0.032859475910663606,0.011687785387039185,-0.011962499469518661,-0.014247400686144829,0.0,1791183708119,0.23400001,9.054001,3.186,0.493388,9.252034,3.193185,-0.235033,-0.169298,0.08619,0.05335,-0.0119624995,0.0622875,
36505480589174,-0.2615686357021332,-0.02004146622493863,9.483882929361663,0.127341640740633,0.13885447636318107,0.041438852250576017,0.048062779009342194,0.02419999986886978,-0.008206368423998356,0.0,1791183708129,0.20295002,8.995951,2.9959502,0.498674,9.253048,3.189427,-0.264261,-0.227772,-0.101588,0.0364375,0.0242,0.071775,
36505490583327,-0.3533800542354584,-0.02406394826248288,9.473019070037688,0.17632506415247917,0.14704582610495573,0.13227648884058,0.0628691166639328,0.03698749840259552,0.001531355082988739,0.0,1791183708141,0.15300001,8.998051,2.9580002,0.50392,9.253677,3.186777,-0.338939,-0.273892,-0.237801,0.0086624995,0.0369875,0.0845625,
36505500577556,-0.2921600043773651,-0.027180239278823137,9.550101315757368,0.22363267317414284,0.15195219305292706,0.20716167241334915,0.05864500254392624,0.026399999856948853,0.009946309030056,0.0,1791183708149,0.22695,9.027,3.10905,0.510936,9.253331,3.186666,-0.326801,-0.240027,-0.149104,-0.013612499,0.0264,0.105875,
36505510571710,-0.22338157892227173,-0.027883599419146775,9.635171726173887,0.26846469268202783,0.15282369041458754,0.25481423139572146,0.06149068847298622,0.023237500339746475,0.013485085219144821,0.0,1791183708159,0.28905,9.07695,3.219,0.520599,9.252038,3.188852,-0.283792,-0.217185,-0.010033,-0.0210375,0.0232375,0.1249875,
36505520566080,-0.1163531094789505,-0.026155426073819397,9.714691664937755,0.28511037975549697,0.1516132606610423,0.24936867654323577,0.06356226652860641,0.021037500351667404,0.012215757742524147,0.0,1791183708169,0.40395,9.166051,3.1930501,0.532405,9.250616,3.191025,-0.168705,-0.117602,0.011736,-0.014712499,0.0210375,0.136675,
36505530560308,-0.03037373721599579,-0.026362542621791364,9.839766193939306,0.2568053871393204,0.15161605234870054,0.2031296968460083,0.053530871868133545,0.008249999955296516,0.01095503568649292,0.0,1791183708179,0.43500003,9.307051,3.1639502,0.545724,9.249472,3.192093,-0.143717,-0.018295,-0.015668,-0.00935,0.00825,0.1420375,
36505540554445,0.07185984402894974,-0.0276949318125844,9.865209203585318,0.1976131796836853,0.15062671063658875,0.11808171719312668,0.029485205188393593,-0.018287500366568565,0.005301292985677719,0.0,1791183708190,0.54495,9.349951,3.0990002,0.560378,9.248974,3.190998,-0.060209,0.094729,-0.043303,0.0086624995,-0.0182875,0.1420375,
36505550548840,0.034603387117385864,-0.034077668376266954,9.81314588296124,0.1296301782131195,0.14504348518340737,0.05272903889417648,-9.534396231174469E-4,-0.04702499881386757,-9.719561785459518E-5,0.0,1791183708199,0.61005,9.316951,3.0199502,0.575872,9.249235,3.187483,0.012881,0.080102,-0.128373,0.02365,-0.047025,0.12925,
36505560543071,0.048299893736839294,-0.03995870891958475,9.841103214946735,0.03125222027301788,0.13907681918112916,0.0016072556376457215,-0.030466768890619278,-0.07259999960660934,-0.0037374505773186684,0.0,1791183708209,0.62205005,9.372001,2.937,0.591133,9.250134,3.182072,0.047899,0.115118,-0.194789,0.032175,-0.0726,0.111237496,
36505570537467,0.060783229768276215,-0.04145605396479368,9.865029451784917,0.07847337573766708,0.13781722628971252,0.03703452348709106,-0.05323251709342003,-0.0906125009059906,-0.0035390653647482395,0.0,1791183708219,0.67005,9.405001,2.901,0.605394,9.251342,3.175875,0.048003,0.149823,-0.258023,0.028875,-0.0906125,0.0941875,
36505580531621,0.06690409034490585,-0.03808418922126293,9.85005043065445,0.1887665778398514,0.1395907606318248,0.056490088999271396,-0.06551990658044815,-0.09707500040531158,7.560960948467255E-4,0.0,1791183708229,0.64605004,9.37695,2.946,0.618522,9.252234,3.170744,0.032481,0.153719,-0.248104,0.012925,-0.097075,0.0782375,
36505590525849,0.04830625653266907,-0.036225786060094835,9.870866839994049,0.2589410439133644,0.140478290494442,0.051779371500015256,-0.05967253819108009,-0.08635000139474869,0.006055840756744146,0.0,1791183708241,0.61200005,9.36495,3.0589502,0.630065,9.252416,3.167944,0.001784,0.110441,-0.173478,-0.0050875,-0.08635,0.0686125,
36505600520232,0.10038676112890244,-0.02885580062866211,9.914636584878641,0.31975027769804004,0.14355195810179094,0.06493604630231857,-0.04431210458278656,-0.06833750009536743,0.01083725318312645,0.0,1791183708249,0.62895006,9.35295,3.2290502,0.640228,9.251691,3.168015,-0.027531,0.11356,-0.015532,-0.020075,-0.0683375,0.06655,
36505610514467,0.12028095126152039,-0.024243394657969475,9.916781610314771,0.3287009343504906,0.146752046319587,0.0793322578072548,-0.011292895302176476,-0.033137500286102295,0.010118652135133743,0.0,1791183708259,0.61200005,9.33405,3.2929502,0.649355,9.2504,3.169931,-0.051024,0.086121,0.130991,-0.017875,-0.0331375,0.06545,
36505620508618,0.12672767043113708,-0.021738382801413537,9.921200433477827,0.29565084278583526,0.14886488821292007,0.09252114593982697,0.019930392503738403,-2.749999985098839E-4,0.005576003342866898,0.0,1791183708269,0.60495,9.36495,3.219,0.657139,9.249447,3.171101,-0.03726,0.101439,0.103485,-0.004125,-2.75E-4,0.06325,
36505630502993,0.1726103127002716,-0.018604017421603204,9.984929738332989,0.2317441076040268,0.15222603396006718,0.11366239041090012,0.01896476559340954,-2.749999985098839E-4,-1.1496245861053467E-5,0.0,1791183708279,0.67005,9.4459505,3.1660502,0.664183,9.249318,3.170013,-0.010785,0.178182,0.015988,0.0119624995,-2.75E-4,0.056925,
36505640497222,0.2523837983608246,-0.011025233939290047,10.047583676036663,0.20720693767070772,0.16147471702723018,0.15447789877653123,-0.008624644950032234,-0.023649999871850014,-0.00615090923383832,0.0,1791183708289,0.74595004,9.54405,3.051,0.670795,9.249997,3.166638,0.054428,0.275666,-0.035703,0.0268125,-0.02365,0.0367125,
36505650491606,0.2547524571418762,-0.0024009067565202713,10.037504444277596,0.18374378234148026,0.17057676384575227,0.18535103797912597,-0.039029743522405624,-0.04496249929070473,-0.010121767409145832,0.0,1791183708298,0.78000003,9.571051,2.9220002,0.675919,9.251579,3.160922,0.111554,0.326756,-0.190399,0.032175,-0.0449625,0.0037125,
36505660485755,0.20095983147621155,0.006903024017810821,9.992299016595297,0.16445229053497312,0.17624617766247724,0.2014868140220642,-0.0734882801771164,-0.06833750009536743,-0.009151211939752102,0.0,1791183708310,0.68895006,9.55095,2.8549502,0.678286,9.253478,3.154848,0.056514,0.300915,-0.270516,0.02145,-0.0683375,-0.032449998,
36505670479974,0.1458238661289215,0.021373261511325837,9.935523157320944,0.1488159641623497,0.17517421916890044,0.2053060531616211,-0.0869736522436142,-0.07150000333786011,-0.0035334022250026464,0.0,1791183708319,0.56205004,9.489,2.8909502,0.677211,9.255067,3.150423,-0.042967,0.253836,-0.28285,-0.001925,-0.0715,-0.0600875,
36505680474376,0.11673233658075333,0.04028831012547016,9.891094057356302,0.14235108643770217,0.16364623367901193,0.19413045793771744,-0.08520668745040894,-0.06091250106692314,0.00475922180339694,0.0,1791183708329,0.47595003,9.4150505,2.9940002,0.672952,9.255747,3.149334,-0.129688,0.205272,-0.212329,-0.0317625,-0.0609125,-0.0793375,
36505690468530,0.05603340268135071,0.06075898297131062,9.842520699547133,0.08992433249950409,0.13647233306649947,0.15486037880182266,-0.07081349194049835,-0.040699999779462814,0.013487501069903374,0.0,1791183708340,0.37305,9.319051,3.14505,0.666283,9.255192,3.152377,-0.218786,0.107665,-0.095661,-0.0605,-0.0407,-0.0878625,
36505700462762,0.04154592379927635,0.07744427938014269,9.87814631651255,0.0328868143260479,0.11016880264820732,0.11221907213330269,-0.050218962132930756,-0.018287500366568565,0.01811007224023342,0.0,1791183708348,0.34395,9.274051,3.384,0.657814,9.253556,3.158954,-0.315662,0.032686,0.098873,-0.07425,-0.0182875,-0.0867625,
36505710457152,0.08613510429859161,0.09292011354118586,9.966650497616982,0.0032670192420482663,0.08588731166289047,0.0892541266977787,-0.037878960371017456,-0.005499999970197678,0.015117553994059563,0.0,1791183708359,0.294,9.280951,3.6210003,0.648691,9.251214,3.167692,-0.330481,-8.84E-4,0.336738,-0.0647625,-0.0055,-0.0878625,
36505720451390,0.16784247756004333,0.10712989289313554,9.992623397867627,0.02000454142689706,0.0725645672025563,0.09365784898400306,-0.015881773084402084,0.013612499460577965,0.006365868728607893,0.0,1791183708368,0.279,9.279,3.6979501,0.639147,9.24906,3.175908,-0.337696,0.03,0.49851,-0.036025,0.013612499,-0.0814,
36505730445542,0.1435754895210266,0.11582735422998666,9.959708334961782,0.05545141920447351,0.06565837525104468,0.09902647957205772,0.009023981168866158,0.03492499887943268,-0.005154401529580355,0.0,1791183708379,0.31305,9.267,3.6360002,0.629624,9.247904,3.181172,-0.328174,0.004819,0.493246,0.0012375,0.034925,-0.073975,
36505740439940,0.13914130628108978,0.11919142734259366,9.921040253197596,0.06970297768712043,0.06504018121936757,0.11564806029200554,0.02690434828400612,0.04867500066757202,-0.017430344596505165,0.0,1791183708389,0.31500003,9.312,3.4080002,0.620757,9.248231,3.181966,-0.302548,0.042799,0.363165,0.0407,0.048675,-0.06655,
36505750434176,0.0738726481795311,0.12115489039570093,9.832734640741021,0.0793734088540077,0.06301827310924751,0.1221134051680565,0.03448328375816345,0.055137500166893005,-0.023126620799303055,0.0,1791183708399,0.246,9.313951,3.1420503,0.611789,9.250127,3.178187,-0.331887,0.072029,0.082034,0.0587125,0.0551375,-0.06545,
36505760428573,-0.004020754247903824,0.11853885799646377,9.753967515331937,0.10122381970286369,0.06695157723195784,0.1040822334587574,0.033211562782526016,0.052937500178813934,-0.023611631244421005,0.0,1791183708410,0.22695,9.295051,2.9479501,0.602501,9.252926,3.171812,-0.360905,0.064441,-0.131857,0.0609125,0.0529375,-0.0633875,
36505770422727,-0.08997467160224915,0.11100096292793751,9.662954566137275,0.14161165431141853,0.08020475549159624,0.052518803626298904,0.02869981899857521,0.047712501138448715,-0.019845427945256233,0.0,1791183708418,0.16695,9.23805,2.8290002,0.593493,9.255974,3.164607,-0.375839,0.02548,-0.282669,0.0501875,0.0477125,-0.0600875,
