timestampNs,vertAccel,smoothedVert,accelMag,zDiff,stdevZ,zThreshDiff,yaw,roll,pitch,speedMps,speedAgeMs,rawAccelX,rawAccelY,rawAccelZ,gravUnitX,gravUnitY,gravUnitZ,linAccelX,linAccelY,linAccelZ,gyroX,gyroY,gyroZ,label
36472634720347,-0.21365191042423248,-0.21365191042423248,9.587902941080728,0.0,0.0,0.21365191042423248,0.027243785560131073,0.04028749838471413,-5.776690086349845E-4,0.0,1791183675283,-0.40395,8.521951,4.37505,0.005611,8.710966,4.489884,-0.400873,-0.178896,-0.118752,0.0012375,0.0402875,-0.0187,
36472644714501,-0.23279821872711182,-0.22322506457567215,9.541192561893919,0.0,0.0,0.22322506457567215,0.005722613073885441,0.007287499960511923,-0.001071189995855093,0.0,1791183675293,-0.36600003,8.48805,4.34205,0.002383,8.71127,4.489297,-0.373704,-0.19596,-0.127742,0.0023375,0.0072875,-0.00165,
36472654708670,-0.2651302218437195,-0.23719345033168793,9.575028282648935,0.0,0.021244492341841135,0.23719345033168793,0.0020781357306987047,-0.002337499987334013,0.004284249152988195,0.0,1791183675303,-0.354,8.524051,4.347,0.001233,8.711296,4.489247,-0.341429,-0.215139,-0.161211,-0.00935,-0.0023375,0.009075,
36472664702740,-0.2431134134531021,-0.23867344111204147,9.60461738564628,0.0,0.018575991474930872,0.23867344111204147,0.016373299062252045,0.009349999949336052,0.015503229573369026,0.0,1791183675313,-0.27495003,8.532001,4.40205,8.48E-4,8.71026,4.491256,-0.309919,-0.216498,-0.110547,-0.033825,0.00935,0.0176,
36472674696674,-0.2070595622062683,-0.23235066533088683,9.62039927423726,0.0,0.02087974956115101,0.23235066533088683,0.04617447778582573,0.04124999791383743,0.027757201343774796,0.0,1791183675326,-0.16995001,8.51505,4.47405,5.87E-4,8.707808,4.496006,-0.218679,-0.206862,-0.050654,-0.0605,0.041249998,0.0207625,
36472684690833,-0.15060260891914368,-0.21872598926226297,9.681776553083667,0.0,0.03593692077314054,0.2197408050298691,0.07779205590486526,0.07961250096559525,0.038035959005355835,0.0,1791183675333,-0.08595,8.529,4.5810003,-7.5E-4,8.704019,4.50334,-0.138332,-0.176737,0.013837,-0.082775,0.0796125,0.0154,
36472694684980,-0.07821735739707947,-0.19865332756723678,9.772380823297938,0.0,0.05936697860871664,0.1888246327638626,0.09802284836769104,0.10518749803304672,0.042037129402160645,0.0,1791183675343,-0.049950004,8.56995,4.69605,-0.003028,8.699256,4.512534,-0.061833,-0.157609,0.13393,-0.091299996,0.1051875,0.0100375,
36472704679056,0.020963676273822784,-0.17120120208710432,9.85244294604475,0.0,0.09142875769759425,0.13160585314035417,0.0996832326054573,0.11151249706745148,0.03920789435505867,0.0,1791183675353,0.0,8.63895,4.737,-0.006146,8.694399,4.521879,-0.013226,-0.078532,0.196412,-0.084975,0.1115125,0.0015125,
36472714672985,0.05552145838737488,-0.14600979536771774,9.84407806054538,0.0,0.111835913478987,0.07187887877225876,0.08638255298137665,0.10092499852180481,0.03191272169351578,0.0,1791183675366,0.030000001,8.637,4.72305,-0.009214,8.690184,4.529973,0.049696,-0.047981,0.21226,-0.069025,0.100925,-0.006875,
36472724667135,0.05262012779712677,-0.1261468030512333,9.836591945702418,0.19370896965265275,0.12168562184249214,0.019942940771579744,0.052615053951740265,0.0668250024318695,0.024584461003541946,0.0,1791183675373,-0.0139500005,8.646001,4.6909504,-0.011606,8.686918,4.536226,0.030541,-0.023167,0.158123,-0.053075,0.066825,-0.0144375,
36472734661222,0.06979106366634369,-0.10833426971327174,9.926809150421969,0.24736085832118987,0.12897335999158158,0.02413579374551773,0.008208087645471096,0.018975000828504562,0.021626871079206467,0.0,1791183675383,-0.025950002,8.668051,4.83795,-0.012712,8.683991,4.54182,-0.001871,-0.029817,0.207595,-0.0466125,0.018975,-0.0187,
36472744655364,0.16680823266506195,-0.0854057278484106,10.022912122225481,0.31033436208963394,0.1450201663255626,0.07314091175794601,-0.015277775004506111,-0.008662499487400055,0.019674891605973244,0.0,1791183675393,-0.0049500004,8.685,5.00295,-0.012233,8.680705,4.548101,-0.011927,-0.004983,0.368908,-0.04235,-0.0086624995,-0.0165,
36472754649294,0.23772087693214417,-0.06054983517298332,10.061966614434235,0.35516579300165174,0.1637891200954011,0.1164923518896103,-0.02151753194630146,-0.014024999924004078,0.015743115916848183,0.0,1791183675403,-0.055050004,8.67,5.1060004,-0.011306,8.677284,4.554627,0.00151,0.010408,0.491669,-0.033825,-0.014025,-0.0196625,
36472764643462,0.27041155099868774,-0.036909736160721095,10.039465184027149,0.3918210357427597,0.17937607449145065,0.15947037041187287,-0.013180159963667393,-0.002337499987334013,0.008858997374773026,0.0,1791183675413,-0.15105,8.661,5.07495,-0.011734,8.674145,4.560603,-0.069887,0.013547,0.555125,-0.018975,-0.0023375,-0.023924999,
36472774637549,0.19262327253818512,-0.021607535580794018,9.99312331906285,0.40721180438995364,0.18250733452714019,0.18747099936008454,-0.002390572801232338,0.010449999943375587,0.006890200078487396,0.0,1791183675427,-0.24405001,8.641951,5.01195,-0.014118,8.671538,4.565551,-0.211155,-0.026941,0.463985,-0.014712499,0.01045,-0.025024999,
36472784631710,0.21119414269924164,-0.007057430688291788,10.018578508842655,0.4045762479305267,0.1854796552042329,0.21575161516666413,0.00993651244789362,0.021037500351667404,0.013372811488807201,0.0,1791183675434,-0.26295,8.629951,5.0820003,-0.017159,8.668623,4.571073,-0.244027,-0.007266,0.465646,-0.0286,0.0210375,-0.0187,
36472794625635,0.2490244358778,0.008006208521478316,10.10301955763319,0.3638007089495659,0.18976202394714026,0.23219485580921173,0.031476084142923355,0.04028749838471413,0.022311003878712654,0.0,1791183675443,-0.16005,8.653951,5.2110004,-0.019845,8.664519,4.578838,-0.181486,-0.015133,0.560832,-0.0477125,0.0402875,-0.009075,
36472804619770,0.3451763391494751,0.026737882445255916,10.191066137614134,0.3255648270249367,0.19993493017822556,0.25368594825267793,0.06333910673856735,0.07741250097751617,0.030351540073752403,0.0,1791183675453,-0.13395001,8.682,5.33505,-0.023186,8.6592,4.588873,-0.127867,0.026098,0.687266,-0.0647625,0.0774125,-0.0111375,
36472814613922,0.4186532497406006,0.04736500703974774,10.309279238108633,0.30327722877264024,0.213374533762293,0.2833342880010605,0.0941961258649826,0.11687500029802322,0.03743544593453407,0.0,1791183675463,-0.20805001,8.71395,5.505,-0.028912,8.65273,4.601022,-0.1389,0.042144,0.811586,-0.0796125,0.116875,-0.0196625,
36472824608009,0.5268752574920654,0.07134051956236362,10.37363743726185,0.3260488912463188,0.23275295033378682,0.3501846849918365,0.13532745838165283,0.1658249944448471,0.03706083819270134,0.0,1791183675473,-0.24405001,8.694,5.65395,-0.037752,8.645536,4.614463,-0.189915,0.07328,0.980106,-0.0785125,0.165825,-0.023924999,
36472834601909,0.5452409386634827,0.10928516201674938,10.316633986461039,0.34385313242673876,0.24474923105460133,0.4169940441846848,0.19179107248783112,0.23182499408721924,0.027211278676986694,0.0,1791183675483,-0.27495003,8.673,5.5800004,-0.049964,8.638681,4.627168,-0.18728,0.063376,1.034438,-0.0573375,0.231825,-0.027224999,
36472844596068,0.40567535161972046,0.141208840534091,10.152041769443514,0.3318318754434586,0.2396338250483993,0.44832422733306887,0.24868160486221313,0.29672500491142273,0.010134412907063961,0.0,1791183675493,-0.39000002,8.674951,5.2590003,-0.065797,8.63394,4.635813,-0.262427,0.02981,0.798344,-0.0210375,0.296725,-0.027224999,
36472854590129,0.21363723278045654,0.1651472132652998,9.881000302752463,0.2625460356473923,0.22103856301056232,0.42201640605926516,0.2881012260913849,0.33605000376701355,-0.004999958910048008,0.0,1791183675502,-0.45495003,8.6320505,4.78695,-0.08419,8.632187,4.638779,-0.346984,0.029169,0.390758,0.0108624995,0.33605,-0.0165,
36472864584283,-0.026910599321126938,0.17595735397189854,9.742781714031738,0.1454326368868351,0.20555208682479215,0.33290363624691965,0.2961868941783905,0.3339875042438507,-0.014750274829566479,0.0,1791183675512,-0.40005,8.71605,4.335,-0.101569,8.633491,4.636007,-0.334394,0.025471,-0.111646,0.031075,0.3339875,0.0048125,
36472874578217,-0.10735728591680527,0.1809424677863717,9.665904253597118,0.009694487601518642,0.19724368277112272,0.2060571275651455,0.2511579096317291,0.2796750068664551,-0.02435149811208248,0.0,1791183675523,-0.37800002,8.7949505,3.9919503,-0.115385,8.6376,4.628021,-0.272694,0.131495,-0.47955,0.0512875,0.279675,0.0111375,
36472884572371,-0.19740080833435059,0.17860255781561135,9.556230635536958,0.1746660776436329,0.2013967975151263,0.057528778165578845,0.18368497490882874,0.20624999701976776,-0.035237640142440796,0.0,1791183675533,-0.39195,8.800051,3.7050002,-0.125921,8.644172,4.615459,-0.25737,0.175201,-0.754292,0.0746625,0.20625,0.005775,
36472894566448,-0.4392300546169281,0.16055192295461893,9.272488281085094,0.3651382513344288,0.2366915250642322,0.11145230308175087,0.1289193034172058,0.1467124968767166,-0.04557446762919426,0.0,1791183675543,-0.48105,8.623051,3.3750002,-0.13432,8.652929,4.598781,-0.308826,0.053916,-1.046466,0.097075,0.1467125,0.0015125,
36472904560599,-0.7556757926940918,0.1217199495062232,9.005406348077297,0.5886491961777209,0.309053997370859,0.3053149081766605,0.09031093865633011,0.09872499853372574,-0.053908634930849075,0.0,1791183675553,-0.62895006,8.48595,2.9479501,-0.141065,8.663753,4.578158,-0.424185,-0.119711,-1.404127,0.1150875,0.098725,0.0100375,
36472914554511,-1.048396348953247,0.0665240591391921,8.79786626960709,0.859796743094921,0.40088312830824097,0.5096120581030845,0.06591358780860901,0.05719999969005585,-0.056511081755161285,0.0,1791183675565,-0.72795004,8.412001,2.4720001,-0.145473,8.676666,4.55349,-0.556246,-0.230788,-1.834358,0.12045,0.0572,0.0367125,
36472924548674,-1.3142337799072266,-0.0018186362460255623,8.644653312677324,1.1679814010858536,0.5013496814487405,0.7509873569011688,0.03279471769928932,0.003987499978393316,-0.04677661135792732,0.0,1791183675575,-0.744,8.368951,2.0340002,-0.145981,8.691034,4.525995,-0.586863,-0.300223,-2.288097,0.0991375,0.0039875,0.06655,
36472934542751,-1.5485725402832031,-0.0827368164435029,8.47972072456903,1.4695459306240082,0.6034647758808442,1.0212217032909394,6.247423589229584E-4,-0.04496249929070473,-0.02383570931851864,0.0,1791183675584,-0.69195,8.31105,1.5340501,-0.142082,8.705435,4.49836,-0.574003,-0.343354,-2.727332,0.0490875,-0.0449625,0.089925,
36472944536902,-1.8179693222045898,-0.1819756941869855,8.365429663674995,1.7189859628677366,0.7083497277114582,1.2969695568084716,-0.016104411333799362,-0.07369999587535858,0.019306598231196404,0.0,1791183675593,-0.651,8.26095,1.146,-0.134678,8.718222,4.473757,-0.53831,-0.432755,-3.155233,-0.0455125,-0.073699996,0.106975,
36472954530816,-2.0536959171295166,-0.2965465338900685,8.176805549068769,1.8894772179424764,0.8093160251080981,1.5565735816955566,-0.0016797222197055817,-0.06407500058412552,0.08361402899026871,0.0,1791183675603,-0.68205005,8.10795,0.81000006,-0.126171,8.726818,4.457214,-0.52527,-0.537119,-3.478666,-0.1871375,-0.064075,0.1164625,
36472964524957,-2.391397714614868,-0.4296369971707463,7.9182072172921485,2.0312309823930264,0.9168573264410741,1.8251738548278809,0.07322773337364197,0.010449999943375587,0.17241549491882324,0.0,1791183675613,-0.78705,7.87095,0.35595003,-0.119957,8.728939,4.453229,-0.581762,-0.728383,-3.850571,-0.3829375,0.01045,0.13035,
36472974519116,-2.8774428367614746,-0.5831403026357294,7.693151331076255,2.1953444443643093,1.0475167643115837,2.1378156661987306,0.2059290111064911,0.1424500048160553,0.29164454340934753,0.0,1791183675627,-1.113,7.6120505,-0.049950004,-0.114584,8.713828,4.482864,-0.807402,-1.00297,-4.361441,-0.641575,0.14245,0.1568875,
36472984513182,-3.116316080093384,-0.7495158137753606,7.683590444389927,2.339912071079016,1.1657234561547887,2.4513643741607667,0.36419445276260376,0.29672500491142273,0.4438709020614624,0.0,1791183675634,-1.281,7.5760503,0.00795,-0.109663,8.676574,4.554672,-1.13554,-1.092608,-4.651121,-0.95975,0.296725,0.19525,
36472994507095,-2.8961925506591797,-0.9067766631022096,7.763139802002655,2.361694111675024,1.2307465704293072,2.6670090198516845,0.40787291526794434,0.30841249227523804,0.6026780009269714,0.0,1791183675642,-0.93600005,7.5979505,1.2889501,-0.103418,8.623658,4.654228,-1.096295,-1.04927,-4.178463,-1.2747625,0.3084125,0.25905,
36473004501232,-1.941951036453247,-1.0211330318823457,8.55525138569786,2.1350479856133457,1.2152652898493845,2.6446600437164305,0.23329217731952667,0.06572499871253967,0.7151347994804382,0.0,1791183675654,0.26505002,7.7320504,3.6520503,-0.083187,8.56186,4.767352,-0.331228,-0.898886,-2.383407,-1.475925,0.065725,0.335775,
36473014495307,-0.558114767074585,-1.069971432723105,10.254509304871856,1.5270160973072051,1.175395509671457,2.278003454208374,-0.06531539559364319,-0.267300009727478,0.7423235774040222,0.0,1791183675663,1.6510501,7.8880506,6.3409505,-0.036188,8.490178,4.894444,1.053505,-0.695523,0.096786,-1.4887125,-0.2673,0.3218875,
36473024489475,1.0446410179138184,-1.0440831447020174,12.358670372468161,0.4723649799823759,1.215305609267084,1.4935866832733153,-0.35520732402801514,-0.5238749980926514,0.6793951988220215,0.0,1791183675674,2.4100502,8.28495,8.84805,0.02543,8.412898,5.026179,2.098007,-0.35488,2.620221,-1.3237125,-0.523875,0.1909875,
36473034483393,2.6221539974212646,-0.9402374917641282,14.002129515860902,0.9510768890380858,1.4184325825705912,0.34589266777038574,-0.571568489074707,-0.6664624810218811,0.5399564504623413,0.0,1791183675683,2.42895,8.641951,10.746,0.065989,8.355162,5.121223,2.428549,0.121839,4.787698,-1.033175,-0.6664625,0.006875,
36473044477564,3.669886827468872,-0.7770269179716707,14.871198651370447,2.5238967895507813,1.719709726302701,0.9673232078552246,-0.6935844421386719,-0.6983624696731567,0.3706701695919037,0.0,1791183675692,2.022,8.7640505,11.842951,0.094159,8.313081,5.188817,2.163354,0.444043,6.180567,-0.7033125,-0.69836247,-0.1783375,
36473054471648,4.095106601715088,-0.5829534495249391,15.154384920447711,3.9999085903167724,2.0143362455877765,2.1747347354888915,-0.6987097263336182,-0.611050009727478,0.21843235194683075,0.0,1791183675703,1.42095,8.611051,12.38895,0.105849,8.286347,5.23118,1.632122,0.434864,6.949838,-0.41593748,-0.61105,-0.33261248,
36473064465793,4.053050518035889,-0.3789553936570883,15.086159055329523,5.2347834587097175,2.2527988725782078,3.0969677925109864,-0.5466440916061401,-0.37908750772476196,0.10807965695858002,0.0,1791183675713,0.60495,8.326051,12.56595,0.09853,8.271399,5.254927,0.952305,0.191237,7.239732,-0.2094125,-0.3790875,-0.418825,
36473074459718,3.9450976848602295,-0.17633264511823654,15.138447407286165,6.128423500061036,2.4423820865600767,3.6770591259002687,-0.274441123008728,-0.059812501072883606,0.0402829609811306,0.0,1791183675726,-0.25095,8.15295,12.753,0.073015,8.263905,5.267123,0.079994,-0.031111,7.387946,-0.0807125,-0.0598125,-0.4156625,
36473084453886,3.92073655128479,0.02957422286272049,15.158775779969007,6.603784656524658,2.60040558857623,3.936775636672974,0.06940819323062897,0.2956250011920929,-0.022459885105490685,0.0,1791183675733,-0.69900006,8.127001,12.777,0.034116,8.262367,5.269927,-0.573031,-0.149283,7.528795,0.0396,0.295625,-0.33467498,
36473094447981,3.9037773609161377,0.24672459363937377,14.914842291343147,6.628213787078858,2.7302817742471266,3.983553743362427,0.4120458960533142,0.6373124718666077,-0.11453600227832794,0.0,1791183676453,-0.651,8.34,12.348001,-0.015154,8.269068,5.2595,-0.71769,-0.065004,7.374023,0.2140875,0.6373125,-0.2336125,
36473104441905,3.705033302307129,0.4697600483894348,14.148330887911834,6.183542537689209,2.820008578392406,3.905539083480835,0.6877288222312927,0.9202874898910522,-0.23574411869049072,0.0,1791183676453,-0.43995002,8.635051,11.199,-0.073122,8.287187,5.23041,-0.475369,0.189814,6.634573,0.4439875,0.9202875,-0.16335,
36473114436048,3.1583969593048096,0.6800997138023377,13.045618465131447,5.220195055007935,2.855591722735929,3.7266083717346192,0.8601749539375305,1.1160874366760254,-0.36193373799324036,0.0,1791183676454,-0.47400004,8.89305,9.53295,-0.139827,8.318166,5.179633,-0.293741,0.470083,5.212916,0.6887375,1.1160874,-0.1463,
36473124430198,2.3481173515319824,0.8632172703742981,11.841740238627214,3.7531049728393553,2.839210785626057,3.4072123050689695,0.8929198980331421,1.1692999601364136,-0.46758460998535156,0.0,1791183676454,-0.76605004,8.950951,7.7149506,-0.21136,8.360633,5.108341,-0.373043,0.588027,3.526864,0.9037875,1.1693,-0.16335,
36473134424270,1.3561458587646484,1.0084531903266907,10.68139427722147,1.9269709587097168,2.785917593521742,2.8942941665649413,0.8528953194618225,1.1321749687194824,-0.5428856015205383,0.0,1791183676454,-1.18005,8.862,5.8450503,-0.284977,8.409388,5.024046,-0.689682,0.508148,1.755652,1.06865,1.132175,-0.170775,
36473144418198,0.37089425325393677,1.117896369099617,9.907020164034071,0.01298280954360953,2.7148204153238087,2.187717545032501,0.752404510974884,1.0139249563217163,-0.5840619206428528,0.0,1791183676454,-1.5799501,8.793,4.28205,-0.358404,8.465283,4.924482,-1.068759,0.339724,0.076324,1.173975,1.013925,-0.1601875,
36473154412347,-0.25758588314056396,1.2077018707990645,9.381832047078044,1.7017740845680238,2.637012049485445,1.3951937079429626,0.6419517993927002,0.8788999915122986,-0.5877834558486938,0.0,1791183676454,-1.9849501,8.661,3.01095,-0.425945,8.527829,4.809855,-1.31007,0.284361,-1.145012,1.2102749,0.8789,-0.1431375,
36473164406510,-1.0196201801300049,1.2762907475233078,8.948584133426243,3.117468845844269,2.559199171569603,0.5595902800559998,0.5575558543205261,0.7469000220298767,-0.5717244148254395,0.0,1791183676454,-2.403,8.3880005,1.9860001,-0.488105,8.593195,4.686019,-1.75548,-0.080279,-2.167999,1.2038125,0.7469,-0.0782375,
36473174400585,-1.6256998777389526,1.3388778954744338,8.738693643263648,4.171948802471161,2.4706245351466545,0.23517316579818726,0.6009741425514221,0.736175000667572,-0.5311781167984009,0.0,1791183676455,-2.87295,8.224951,0.67905,-0.543147,8.659205,4.556661,-2.16252,-0.256423,-3.266867,1.1389124,0.736175,0.0292875,
36473184394749,-2.310438871383667,1.3791717559099197,8.751214087982827,4.9520438551902775,2.4032894069850643,0.9684901118278504,0.6608608961105347,0.7149999737739563,-0.4489712119102478,0.0,1791183676455,-3.9070501,7.8300004,0.09900001,-0.59115,8.721499,4.430123,-2.696308,-0.677846,-4.136316,0.9686875,0.715,0.1835625,
36473194388667,-2.8737916946411133,1.380291798710823,8.0389675902652,5.522966384887695,2.4013010280101574,1.6174273014068603,0.8826779127120972,0.8277499675750732,-0.35075056552886963,0.0,1791183676455,-3.04305,7.4230504,-0.513,-0.630683,8.774602,4.318405,-3.037452,-1.173877,-4.580054,0.733425,0.82774997,0.4283125,
36473204382823,-3.228170156478882,1.3159808427095414,7.788040120119207,5.938152527809143,2.504424471788366,2.211544156074524,1.0107510089874268,0.8277499675750732,-0.25313088297843933,0.0,1791183676455,-2.14995,7.4689503,-0.49605003,-0.62666,8.812093,4.241974,-1.758183,-1.407692,-4.793321,0.4833125,0.82774997,0.68694997,
36473214376884,-3.089560031890869,1.189408579468727,7.822331449345344,6.032744431495667,2.6553623480099047,2.625532126426697,1.057356595993042,0.80121248960495,-0.16687850654125214,0.0,1791183676455,-1.1700001,7.72695,-0.33795002,-0.590894,8.832685,4.204113,-1.123573,-1.272661,-4.686029,0.2737625,0.8012125,0.8199125,
36473224371023,-2.6788268089294434,1.003235188126564,8.099681629938411,5.730451679229736,2.786288397894895,2.836157512664795,0.9867085814476013,0.6851624846458435,-0.10127963870763779,0.0,1791183676456,-0.32805002,8.092951,0.03705,-0.548291,8.86286,4.145972,-0.155823,-0.974831,-4.268757,0.1225125,0.6851625,0.88385,
36473234364941,-2.2589638233184814,0.7591792970895768,8.423211178521779,5.013580048084259,2.846909196348399,2.825862503051758,0.8125499486923218,0.49994999170303345,-0.0618106946349144,0.0,1791183676456,0.47100002,8.40705,0.22395001,-0.488541,8.887296,4.100894,0.552966,-0.620983,-3.986653,0.044825,0.49995,0.8636375,
36473244359088,-1.9679746627807617,0.477286222577095,8.794861706577102,4.03989280462265,2.823771553519596,2.6446990966796875,0.4814496636390686,0.17215000092983246,-0.0375867635011673,0.0,1791183676456,1.36395,8.685,0.24495001,-0.413088,8.90834,4.063354,1.360973,-0.359511,-3.819826,0.0108624995,0.17215,0.78485,
36473254353165,-1.6630061864852905,0.18938058316707612,9.253028092792588,2.891256582736969,2.732289789588867,2.3316663026809694,-0.030400991439819336,-0.318450003862381,-0.011665021069347858,0.0,1791183676456,1.7809501,9.06795,0.46800002,-0.32338,8.926603,4.031277,2.018256,-0.059346,-3.749442,-0.0221375,-0.31845,0.629475,
36473264347073,-1.0493288040161133,-0.06573838293552399,9.653296541339989,1.6884468913078308,2.5943485861465585,1.923620057106018,-0.6881905198097229,-0.9431124925613403,0.027312077581882477,0.0,1791183676456,1.728,9.38895,1.4310001,-0.22625,8.939322,4.009655,2.024077,0.320585,-3.165182,-0.0902,-0.9431125,0.415525,
36473274341227,-0.36912602186203003,-0.281449568271637,9.877274594781651,0.4931897878646849,2.425773108886658,1.4616798996925353,-1.2046724557876587,-1.4092375040054321,0.07918646931648254,0.0,1791183676456,1.66305,9.21195,3.1519501,-0.130936,8.942241,4.007396,1.818629,0.408645,-1.755133,-0.199925,-1.4092375,0.1920875,
36473284335304,0.16229833662509918,-0.4693714790046215,10.396570099618492,0.639999833703041,2.230692209214324,0.9774274677038193,-1.5134241580963135,-1.6625125408172607,0.12682975828647614,0.0,1791183676456,1.3069501,8.898001,5.21595,-0.042899,8.932794,4.030305,1.642007,0.116423,0.154078,-0.3084125,-1.6625125,0.0015125,
36473294329465,0.7251691222190857,-0.6283018909394741,11.333732359243655,1.7727454453706741,2.0163962110669815,0.4387987107038498,-1.5666080713272095,-1.6647125482559204,0.16022512316703796,0.0,1791183676456,0.72705,8.656051,7.27995,0.029362,8.911967,4.07627,1.031049,-0.17639,2.121637,-0.3861,-1.6647125,-0.124025,
36473304323416,1.5455005168914795,-0.7362785302102566,12.759366757300844,2.828434756398201,1.8307309676575014,0.2029026299715042,-1.3609803915023804,-1.4251874685287476,0.17513959109783173,0.0,1791183676457,0.34395,8.62005,9.40095,0.082182,8.888937,4.125538,0.382073,-0.282647,4.27264,-0.4191,-1.4251875,-0.1538625,
36473314317569,2.340575695037842,-0.7771695934236049,13.855560877251692,3.7170410424470903,1.7506657404054424,0.8808835297822952,-1.0210254192352295,-1.0686500072479248,0.15577594935894012,0.0,1791183676457,0.351,8.57205,10.879951,0.121259,8.871418,4.162123,0.161037,-0.272311,6.086774,-0.37015,-1.06865,-0.1155,
36473324311655,2.8550117015838623,-0.751824875921011,14.63896772198577,4.351573577523231,1.7987368633290042,1.5257110744714737,-0.5810317993164062,-0.611050009727478,0.1110246330499649,0.0,1791183676457,0.79395,8.706,11.742001,0.147435,8.857471,4.190881,0.395828,-0.248787,7.188079,-0.2616625,-0.61105,-0.058025,
36473334305817,3.3181753158569336,-0.6537234030663968,14.977007081054612,4.801585566997528,1.9575235507297186,2.1568864703178408,-0.1478031426668167,-0.14602500200271606,0.04048372060060501,0.0,1791183676457,1.2280501,8.92695,11.962951,0.157524,8.849682,4.206937,0.845427,-0.023125,7.746632,-0.0955625,-0.146025,-0.03355,
36473344299742,3.3720834255218506,-0.503663944453001,14.328135665253297,5.017935633659363,2.137111268632347,2.6862693309783934,0.271859735250473,0.33082500100135803,-0.048560671508312225,0.0,1791183676457,1.5340501,9.04605,11.005051,0.146597,8.850279,4.206078,1.249003,0.167813,7.460187,0.110825,0.330825,-0.06655,
36473354293886,2.7312326431274414,-0.3542230181396008,12.970694701463145,4.847035813331604,2.2505803829372475,2.923415756225586,0.6349300146102905,0.7713750004768372,-0.12870249152183533,0.0,1791183676457,1.4770501,9.08895,9.135,0.110022,8.859466,4.187813,1.465143,0.19454,5.941374,0.2971375,0.771375,-0.1538625,
36473364288035,1.891951084136963,-0.20864445492625236,11.607543090430417,4.295370733737945,2.29652915890967,2.8336908340454103,0.8310479521751404,1.043762445449829,-0.17527040839195251,0.0,1791183676457,0.90195006,9.05595,7.2049503,0.050174,8.874508,4.156996,1.153889,0.208228,4.001762,0.4098875,1.0437624,-0.2740375,
36473374282106,0.9698687791824341,-0.07886602208018303,10.329817877287715,3.434089717268944,2.286098445971367,2.4566622495651247,0.9096502065658569,1.1800249814987183,-0.19370877742767334,0.0,1791183676457,0.16695,8.781,5.43795,-0.021204,8.884938,4.134906,0.564469,0.070904,2.149192,0.4610375,1.180025,-0.3773,
36473384276024,-0.06103534996509552,0.033604153990745546,9.279791031269834,2.2196188271045685,2.228141959508696,1.7808201164007187,0.9110331535339355,1.2056000232696533,-0.19445951282978058,0.0,1791183676457,-0.52905005,8.436001,3.82995,-0.106009,8.90062,4.099721,-0.102505,-0.301512,0.506042,0.4758875,1.2056,-0.42734998,
36473394270194,-0.9317923188209534,0.13070412278175353,8.592074539705065,0.7171423375606537,2.139892561377279,0.9200449675321579,0.8551007509231567,1.1384999752044678,-0.18675531446933746,0.0,1791183676458,-1.0390501,8.14605,2.52705,-0.194863,8.920781,4.052371,-0.588259,-0.623343,-0.909465,0.471625,1.1385,-0.4156625,
36473404264348,-1.6245384216308594,0.21088570952415467,8.213502814790546,0.8319927752017975,2.040258092908138,0.04889075458049774,0.7670753598213196,1.0129624605178833,-0.17218519747257233,0.0,1791183676458,-1.3740001,7.9690504,1.43805,-0.279311,8.944208,3.995391,-0.951527,-0.900555,-2.03522,0.44715,1.0129625,-0.3548875,
36473414258433,-2.087348461151123,0.26099628806114195,8.102599700997887,2.2726802289485932,1.969667212032933,0.7469691544771194,0.6594452857971191,0.8542875051498413,-0.1487731784582138,0.0,1791183676458,-1.4290501,7.9590006,0.51405,-0.353034,8.969736,3.931822,-1.078917,-1.007487,-3.001158,0.3950375,0.8542875,-0.269775,
36473424252351,-2.3489174842834473,0.27749175429344175,8.229950402571749,3.5676128774881364,1.9462197534258814,1.4107264071702956,0.5330326557159424,0.6755374670028687,-0.11353518813848495,0.0,1791183676458,-1.28505,8.12895,0.030000001,-0.411678,8.995386,3.866986,-1.003514,-1.009195,-3.712043,0.307725,0.67553747,-0.187825,
36473434246526,-2.262932777404785,0.2772933065891266,8.110909028354804,4.5373752236366265,1.9464785599760361,1.8511058926582336,0.43288689851760864,0.550000011920929,-0.06304656714200974,0.0,1791183676458,-1.2229501,8.0119505,-0.31605002,-0.45709,9.017868,3.809084,-0.716287,-0.837746,-3.924687,0.1821875,0.55,-0.1665125,
36473444240587,-2.50571870803833,0.25040610432624816,8.022234400590017,5.089306926727295,1.980720132619694,2.165891170501709,0.29655343294143677,0.3712500035762787,-0.02109714411199093,0.0,1791183676458,-1.4119501,7.8949504,-0.18,-0.49375,9.036232,3.760683,-0.828067,-1.090742,-4.017543,0.0694375,0.37125,-0.1101375,
36473454234741,-2.659050464630127,0.20060389041900634,7.795009412070598,5.206484413146972,2.039843506216997,2.3727935791015624,0.16643863916397095,0.20308749377727509,0.012749487534165382,0.0,1791183676458,-1.3570501,7.6699505,-0.30405003,-0.52028,9.050474,3.722665,-0.892518,-1.291732,-3.984314,-0.0253,0.2030875,-0.059125,
36473464228666,-2.799804449081421,0.11308010816574096,7.674488778980595,4.971947026252747,2.1272769073517503,2.515284776687622,-0.008245881646871567,-0.0193875003606081,0.04685496911406517,0.0,1791183676458,-1.26405,7.5690002,-0.10095,-0.522022,9.048338,3.727609,-0.814161,-1.442825,-3.972499,-0.1243,-0.0193875,0.007975,
36473474222805,-2.6687698364257812,-0.0019020825624465943,7.79499037168861,4.360075363516808,2.2107452260463556,2.579255247116089,-0.2982880175113678,-0.3727625012397766,0.07360690832138062,0.0,1791183676458,-1.1539501,7.6840506,0.62100005,-0.504493,9.043223,3.742407,-0.711979,-1.464047,-3.546764,-0.20515,-0.3727625,0.0919875,
36473484216867,-2.1067543029785156,-0.11535471454262733,8.188795032184728,3.4680645197629927,2.2571431078666624,2.548019552230835,-0.6510016918182373,-0.7866374850273132,0.09166813641786575,0.0,1791183676459,-1.1010001,7.9210505,1.761,-0.469126,9.039615,3.7557,-0.713828,-1.249748,-2.578434,-0.2594625,-0.7866375,0.16225,
36473494211003,-1.405207633972168,-0.22187355235219003,8.821557784160431,2.3768080919981003,2.2652175962281165,2.3279173374176025,-0.97089684009552,-1.1570625305175781,0.10007413476705551,0.0,1791183676459,-0.67995006,8.232,3.0970502,-0.415976,9.035051,3.772904,-0.501222,-0.972245,-1.376989,-0.28393748,-1.1570625,0.2176625,
36473504204920,-0.5449740290641785,-0.3263972796499729,9.838447437573652,1.1581328958272934,2.2291982167506093,1.905102050304413,-1.2602241039276123,-1.4848624467849731,0.10236261039972305,0.0,1791183676459,-0.052050002,8.57505,4.8229504,-0.340386,9.025159,3.80403,-0.035722,-0.634347,0.097838,-0.2861375,-1.4848624,0.2506625,
36473514199045,0.5389679074287415,-0.41647766903042793,11.201289299589485,0.17337882816791517,2.1547658378528727,1.2373475790023805,-1.410102367401123,-1.6454625129699707,0.09894978255033493,0.0,1791183676459,0.363,8.886001,6.8100004,-0.250568,9.009955,3.846809,0.39879,-0.248043,1.979996,-0.2679875,-1.6454625,0.24419999,
36473524193112,1.517088770866394,-0.4833738155663013,12.451156551651053,1.4509300351142882,2.0713142072918567,0.4001758575439453,-1.3264575004577637,-1.540137529373169,0.08325116336345673,0.0,1791183676459,0.6,9.08895,8.488951,-0.16447,8.996256,3.883342,0.671822,0.007471,3.839671,-0.2190375,-1.5401375,0.2112,
36473534187035,2.1544337272644043,-0.5415608949959279,13.210818273223339,2.6179529190063477,1.9779457653929833,0.45206174850463865,-1.0499560832977295,-1.2177000045776367,0.05765623599290848,0.0,1791183676459,0.70605004,9.151951,9.501,-0.095123,8.988729,3.903035,0.750915,0.110765,5.172703,-0.148775,-1.2177,0.16445,
36473544181194,2.486243963241577,-0.5858528681099415,13.484079239220064,3.60314564704895,1.8981193828513474,1.2303520679473876,-0.6720442771911621,-0.7856749892234802,0.02910562790930271,0.0,1791183676459,0.76305,9.20895,9.82005,-0.04572,8.983785,3.915296,0.761367,0.177959,5.823636,-0.07425,-0.785675,0.1197625,
36473554175348,2.520020008087158,-0.5964134998619557,13.260474332993104,4.358635652065277,1.8801370073281287,1.843350875377655,-0.25416380167007446,-0.3110249936580658,0.0035960578825324774,0.0,1791183676459,0.74100006,9.228001,9.493951,-0.018411,8.981384,3.921021,0.769972,0.218667,5.801152,-0.00935,-0.311025,0.0771375,
36473564169444,2.322434186935425,-0.5748893447220326,12.687945895928666,4.779299378395081,1.910716502483139,2.200044131278992,0.13811805844306946,0.13708749413490295,-0.017978407442569733,0.0,1791183676459,0.59295005,9.240001,8.674951,-0.013301,8.981278,3.92128,0.688247,0.252291,5.228678,0.044825,0.1370875,0.03135,
36473574163367,1.9159268140792847,-0.52758644297719,11.909390868418006,4.827831292152405,1.9594627738558246,2.27981173992157,0.448232501745224,0.4945875108242035,-0.03365657851099968,0.0,1791183676460,0.32700002,9.23805,7.5090003,-0.027167,8.983049,3.917151,0.486634,0.257703,4.205695,0.0842875,0.4945875,-0.0122375,
36473584157507,1.444335699081421,-0.4523178905248642,11.20998678443173,4.465709471702576,2.0043376356632145,2.137792134284973,0.6264671683311462,0.7085375189781189,-0.04532478377223015,0.0,1791183676460,0.066,9.25695,6.32205,-0.054129,8.982317,3.918551,0.259812,0.272801,2.990434,0.114125,0.7085375,-0.055825,
36473594151651,0.9711579084396362,-0.3571703791618347,10.574655456750326,3.7398769736289976,2.02438526223637,1.834774923324585,0.6709798574447632,0.7756375074386597,-0.05496066436171532,0.0,1791183676460,-0.14805001,9.160951,5.28,-0.089262,8.980989,3.920955,0.041159,0.24061,1.877121,0.1395625,0.7756375,-0.0963875,
36473604145721,0.41728201508522034,-0.2550793573260307,9.930004035119492,2.651574903726578,2.0093259693276497,1.4142273247241974,0.6218409538269043,0.736175000667572,-0.06554301828145981,0.0,1791183676460,-0.45495003,8.941051,4.296,-0.12878,8.983608,3.913849,-0.177896,0.082367,0.849931,0.1683,0.736175,-0.1271875,
36473614139866,-0.17040354013442993,-0.15923211127519607,9.407309857720715,1.3158356368541717,1.9648669554700704,0.9156597793102265,0.4966013431549072,0.6043124794960022,-0.0751957818865776,0.0,1791183676460,-0.83100003,8.68995,3.5059502,-0.168324,8.989986,3.897666,-0.487905,-0.187372,-0.017346,0.194975,0.6043125,-0.1368125,
36473624133798,-0.6760205030441284,-0.07558726221323013,8.993038937011523,0.054791432619094804,1.904553255327523,0.39727031588554385,0.34141576290130615,0.4244624972343445,-0.08151507377624512,0.0,1791183676460,-1.04595,8.457001,2.874,-0.2031,8.999382,3.874261,-0.747616,-0.450552,-0.702625,0.212025,0.4244625,-0.111237496,
36473634127945,-1.005016565322876,-0.012691451609134674,8.78004671400256,1.3229522049427032,1.8513063335708744,0.09260013699531555,0.17564624547958374,0.2232999950647354,-0.07920978963375092,0.0,1791183676460,-1.0510501,8.359051,2.4720001,-0.228212,9.010628,3.846625,-0.854186,-0.600663,-1.204107,0.2055625,0.2233,-0.0633875,
36473644122005,-1.178820013999939,0.05365348309278488,8.696224419803347,2.3659465968608857,1.7833022841053252,0.5225957214832306,0.017596406862139702,0.028462499380111694,-0.06740202009677887,0.0,1791183676460,-0.96000004,8.314051,2.36205,-0.240757,9.022035,3.819024,-0.791362,-0.691078,-1.442262,0.1736625,0.0284625,-0.0111375,
36473654115947,-1.1754690408706665,0.1278325542807579,8.69685318661067,3.0411900639533997,1.697723026715224,0.841145932674408,-0.1260090470314026,-0.1480875015258789,-0.053273435682058334,0.0,1791183676460,-0.72795004,8.27805,2.565,-0.240397,9.032006,3.795408,-0.612157,-0.72978,-1.337243,0.1353,-0.1480875,0.0356125,
36473664110103,-1.1285021305084229,0.2113976702094078,8.768101161324733,3.3125773906707763,1.5892281987418844,1.0327656507492065,-0.234695166349411,-0.2769249975681305,-0.041266631335020065,0.0,1791183676460,-0.53595,8.247001,2.9290502,-0.229343,9.039639,3.777876,-0.390973,-0.794873,-1.049167,0.1034,-0.276925,0.0600875,
36473674104251,-0.9897967576980591,0.2953463241457939,8.919666630625526,3.233313035964966,1.475118317473748,1.0955209016799927,-0.30201011896133423,-0.35571250319480896,-0.03233421593904495,0.0,1791183676460,-0.423,8.244,3.3790503,-0.21163,9.044616,3.766983,-0.250669,-0.821398,-0.616894,0.080025,-0.3557125,0.072875,
36473684098345,-0.7859605550765991,0.36138601154088973,9.14086541473349,2.8864846229553223,1.393402191560812,1.0517096996307373,-0.3241861164569855,-0.3844499886035919,-0.027432948350906372,0.0,1791183676460,-0.39705002,8.28705,3.8370001,-0.190517,9.047194,3.761917,-0.216715,-0.797639,-0.14017,0.0672375,-0.38445,0.0834625,
36473694092264,-0.6037966012954712,0.40145656317472456,9.269469060942601,2.3509323418140413,1.3529598060274954,0.9367050170898438,-0.27714601159095764,-0.3375625014305115,-0.019642386585474014,0.0,1791183676461,-0.35205,8.27505,4.1620502,-0.169444,9.047572,3.762013,-0.211452,-0.766894,0.261959,0.047025,-0.3375625,0.0919875,
36473704086414,-0.5177139043807983,0.4028195694088936,9.354898896677962,1.7208137691020966,1.3520190653481896,0.8051539897918701,-0.17725896835327148,-0.23539999127388,-0.007844354026019573,0.0,1791183676461,-0.294,8.26095,4.38,-0.150368,9.045828,3.767019,-0.177856,-0.779515,0.517921,0.016224999,-0.23539999,0.104775,
36473714080563,-0.4180981516838074,0.3549662664532661,9.484383524390038,1.060343509912491,1.3632439587998009,0.663073194026947,-0.07004944980144501,-0.12581250071525574,0.006913643795996904,0.0,1791183676461,-0.17400001,8.347051,4.5,-0.133606,9.042031,3.776747,-0.108427,-0.735016,0.670998,-0.0221375,-0.1258125,0.1186625,
36473724074634,-0.24322420358657837,0.2669506177306175,9.729135847483446,0.42115854620933535,1.3420329701401663,0.5137586832046509,0.013228345662355423,-0.03849999979138374,0.02269614487886429,0.0,1791183676461,-0.13905,8.533951,4.66995,-0.118693,9.036483,3.790499,-0.034754,-0.600181,0.800898,-0.0625625,-0.0385,0.124025,
36473734068563,-0.012818515300750732,0.15858800560235978,9.944758927048934,0.16346544623374942,1.2708634667764536,0.3591302752494812,0.06855800002813339,0.021037500351667404,0.0341305211186409,0.0,1791183676461,-0.112050004,8.680051,4.8520503,-0.106025,9.029472,3.807546,-0.021085,-0.418394,0.958628,-0.091299996,0.0210375,0.124025,
36473744062717,0.17226451635360718,0.04288903325796127,10.113870796131774,0.6372278809547425,1.1536108262651519,0.20391805171966554,0.09781655669212341,0.05623750016093254,0.03704847767949104,0.0,1791183676461,-0.033,8.776051,5.0269504,-0.0952,9.021652,3.826321,0.018367,-0.28847,1.121813,-0.0977625,0.0562375,0.1155,
36473754056794,0.33086293935775757,-0.06656882017850876,10.27017209139635,0.9985629677772521,1.008054796131665,0.03420268297195435,0.09896761178970337,0.06572499871253967,0.032930295914411545,0.0,1791183676461,0.052050002,8.886001,5.14905,-0.085619,9.013807,3.844993,0.097371,-0.17528,1.25637,-0.086075,0.065725,0.09625,
36473764050946,0.44257381558418274,-0.16056183874607086,10.323790493569389,1.2334526121616365,0.8572831079883756,0.13793171048164368,0.10651686787605286,0.0849749967455864,0.02495749294757843,0.0,1791183676461,0.17400001,8.967,5.1130505,-0.078031,9.006627,3.861942,0.214282,-0.074726,1.30167,-0.0647625,0.084975,0.0708125,
36473774044871,0.4966299831867218,-0.231526680290699,10.340995817613397,1.337612247467041,0.7320540395229707,0.2859025478363037,0.10149464011192322,0.0966624990105629,0.016514169052243233,0.0,1791183676461,0.19305001,9.027,5.0410504,-0.073441,9.000699,3.875826,0.281517,0.024576,1.203988,-0.04235,0.0966625,0.03135,
36473784039030,0.42492198944091797,-0.28249736577272416,10.225028855907624,1.3101556658744813,0.6437589712565355,0.37345064878463746,0.07251669466495514,0.08277499675750732,0.00715689267963171,0.0,1791183676461,0.040050004,8.943001,4.9570503,-0.07266,8.995934,3.88689,0.189757,-0.013754,1.106734,-0.017875,0.082775,-0.009075,
36473794033122,0.3012986183166504,-0.31599033027887347,10.060947384565743,1.2044114589691162,0.5930953925177493,0.3992574691772461,0.046815503388643265,0.06792499870061874,-0.0018852094653993845,0.0,1791183676461,-0.14595,8.802,4.87095,-0.075819,8.992174,3.89552,0.020534,-0.112945,1.019095,0.0055,0.067925,-0.0389125,
36473804027040,0.16789710521697998,-0.32845957577228546,9.991449823030662,1.0297374963760375,0.5800255153270051,0.3666643023490906,0.024540342390537262,0.04661250114440918,-0.009425736963748932,0.0,1791183676461,-0.30105,8.76105,4.794,-0.081089,8.989272,3.902102,-0.158549,-0.222571,0.93111,0.0246125,0.0466125,-0.0452375,
36473814021194,0.11567912995815277,-0.31415544226765635,9.916924784069554,0.8150440484285355,0.5872298222768982,0.3012853652238846,0.01373146753758192,0.0317624993622303,-0.014192451722919941,0.0,1791183676463,-0.37305,8.698951,4.7470503,-0.086559,8.987123,3.906938,-0.258424,-0.246757,0.852054,0.0364375,0.0317625,-0.0378125,
36473824015362,0.043001919984817505,-0.278204321116209,9.852282799924254,0.569690027832985,0.5859839025257695,0.21055975258350373,0.01652580127120018,0.028462499380111694,-0.01729138009250164,0.0,1791183676472,-0.35205,8.668051,4.66995,-0.090914,8.985341,3.910929,-0.268434,-0.307225,0.807362,0.0438625,0.0284625,-0.0229625,
36473834009420,0.01837816834449768,-0.22703458443284036,9.839217311254355,0.3331690400838852,0.5645742190389004,0.12925098836421967,0.02391691505908966,0.02956249937415123,-0.018276061862707138,0.0,1791183676482,-0.31305,8.69205,4.6000504,-0.093526,8.983997,3.913956,-0.234697,-0.296304,0.720537,0.045925,0.0295625,-0.006875,
36473844003333,0.00906151533126831,-0.16764050796628,9.862827348304117,0.1050062507390976,0.522215171843416,0.07080356776714325,0.027879981324076653,0.030662499368190765,-0.01835833117365837,0.0,1791183676493,-0.25605002,8.72805,4.5859504,-0.095138,8.982929,3.916371,-0.216326,-0.285659,0.672632,0.045925,0.0306625,5.5E-4,
36473853997478,0.05169513821601868,-0.10628229901194572,9.871189497084183,0.0903685361146927,0.4696417193934805,0.04756317436695099,0.033035535365343094,0.03492499887943268,-0.018838267773389816,0.0,1791183676503,-0.16305001,8.77095,4.5259504,-0.095633,8.982062,3.918341,-0.122457,-0.224938,0.641932,0.047025,0.034925,0.0037125,
36473863991632,0.05847197771072388,-0.04693359360098839,9.847058025124932,0.2497808039188385,0.407616983393227,0.03612174391746521,0.04569786787033081,0.05197500064969063,-0.018331438302993774,0.0,1791183676512,-0.12195001,8.805,4.407,-0.096337,8.981524,3.919559,-0.066686,-0.17891,0.554523,0.045925,0.051975,-0.0037125,
36473873985804,-0.04157257080078125,4.7761574387550354E-4,9.736264406590603,0.354243803024292,0.3456235988713271,0.01920684576034546,0.05188273638486862,0.06476250290870667,-0.01692773401737213,0.0,1791183676523,-0.18900001,8.74695,4.2720003,-0.098515,8.981343,3.919922,-0.054931,-0.231401,0.424873,0.0427625,0.0647625,-0.0176,
36473883979883,-0.10894106328487396,0.034328590333461764,9.655805570921181,0.40551446974277494,0.296621233488013,0.00625700056552887,0.05717404559254646,0.07644999772310257,-0.01292571984231472,0.0,1791183676533,-0.24405001,8.71605,4.14795,-0.103024,8.981219,3.920086,-0.110278,-0.248037,0.293027,0.0331375,0.07645,-0.03135,
36473893973826,-0.2210892140865326,0.05346395969390869,9.498225798402679,0.41895144879817964,0.26555549048466875,0.05228714644908905,0.06921852380037308,0.09129999577999115,-0.006918507162481546,0.0,1791183676542,-0.34395,8.61495,3.9850502,-0.109375,8.980957,3.920519,-0.197301,-0.307629,0.146549,0.0182875,0.091299996,-0.0356125,
36473903967977,-0.35075685381889343,0.06181181222200394,9.44719907616077,0.43406291007995607,0.2496147983756622,0.13277754485607146,0.07342807203531265,0.09239999949932098,0.001545807346701622,0.0,1791183676553,-0.45495003,8.59395,3.897,-0.11657,8.980356,3.921684,-0.273903,-0.386037,-6.62E-4,-0.003025,0.0924,-0.0281875,
36473913962052,-0.3479801118373871,0.06531771421432495,9.476910451722565,0.4246277153491974,0.2432612764041038,0.21406796276569368,0.057626087218523026,0.06792499870061874,0.009459373541176319,0.0,1791183676562,-0.61005,8.57205,3.9949503,-0.123093,8.979041,3.924498,-0.415821,-0.387116,0.003705,-0.0232375,0.067925,-0.0122375,
36473923956206,-0.33787623047828674,0.060585112869739534,9.485159875524605,0.4025796830654144,0.25004402248822805,0.27332869470119475,0.03384727984666824,0.030662499368190765,0.012563190422952175,0.0,1791183676572,-0.582,8.51505,4.13805,-0.127279,8.976711,3.929693,-0.490643,-0.442247,0.151739,-0.0317625,0.0306625,0.0133375,
36473933950100,-0.31302207708358765,0.04557493478059769,9.529372097333473,0.38494846522808074,0.2626907301821616,0.3141448974609375,0.020037664100527763,8.249999955296516E-4,0.008277575485408306,0.0,1791183676582,-0.531,8.524051,4.227,-0.126949,8.974114,3.935626,-0.450272,-0.463592,0.263122,-0.0221375,8.25E-4,0.0473,
36473943944275,-0.2626679539680481,0.02382831126451492,9.606019925055849,0.37002381980419163,0.2692242104799182,0.3224606454372406,0.00607796385884285,-0.02681249938905239,7.130337180569768E-4,0.0,1791183676593,-0.42105,8.60295,4.25295,-0.121871,8.972054,3.940484,-0.347611,-0.42083,0.294177,-0.004125,-0.0268125,0.0760375,
36473953938350,-0.15446437895298004,-4.380546510219574E-4,9.719710518334065,0.31932389438152314,0.26223790729149044,0.28320215046405794,-0.016958732157945633,-0.059812501072883606,-0.005011919420212507,0.0,1791183676603,-0.294,8.70195,4.32,-0.112698,8.970682,3.943874,-0.268198,-0.318902,0.333883,0.0097624995,-0.0598125,0.0941875,
36473963932499,-0.027169346809387207,-0.023925212770700456,9.856955043249693,0.2382468432188034,0.24174330531503796,0.21903999745845795,-0.04101038724184036,-0.08744999766349792,-0.007916790433228016,0.0,1791183676613,-0.124050006,8.809051,4.4209504,-0.100162,8.969593,3.946693,-0.098774,-0.219651,0.429227,0.0171875,-0.08745,0.09735,
36473973926408,0.08101704716682434,-0.04470585957169533,9.922611661118452,0.12900434136390687,0.2121550109643847,0.13526134192943573,-0.05103765428066254,-0.09281250089406967,-0.00894844625145197,0.0,1791183676622,-0.0049500004,8.818951,4.5480003,-0.086588,8.968492,3.949518,0.026514,-0.14433,0.529352,0.02035,-0.0928125,0.0845625,
36473983920573,0.1360742747783661,-0.05914824530482292,9.976348689498767,0.00684507489204407,0.18816940025414433,0.04544207155704498,-0.047853901982307434,-0.08002500236034393,-0.008301601745188236,0.0,1791183676632,-0.031050002,8.812051,4.677,-0.074459,8.966896,3.95338,0.047904,-0.142734,0.661959,0.0193875,-0.080025,0.06325,
36473993914672,0.17355892062187195,-0.06553523018956184,10.03665345805274,0.17458084821701048,0.17770330271280932,0.04180330336093903,-0.03243880718946457,-0.05664999783039093,-0.010261778719723225,0.0,1791183676642,-0.055050004,8.82405,4.782,-0.065081,8.964946,3.957969,0.005007,-0.157543,0.786658,0.0246125,-0.056649998,0.0484,
36474003908826,0.1828380823135376,-0.06478818133473396,9.977905353599779,0.3233317583799362,0.1787116058642229,0.10926379561424256,-0.003099905326962471,-0.0193875003606081,-0.014505420811474323,0.0,1791183676652,-0.069000006,8.79705,4.7080503,-0.058382,8.96318,3.962074,0.005491,-0.153383,0.799312,0.0353375,-0.0193875,0.0367125,
36474013902759,0.10429851710796356,-0.06535721197724342,9.911224974464862,0.40888606309890746,0.17815332534630285,0.1355573683977127,0.015363672748208046,0.005087499972432852,-0.018282122910022736,0.0,1791183676662,-0.048,8.805,4.54995,-0.053917,8.962178,3.964403,-0.006156,-0.173929,0.650937,0.044825,0.0050875,0.0270875,
36474023896929,0.06005047261714935,-0.06450478434562683,9.877678896888458,0.44550895094871523,0.17870968074748012,0.13136405348777772,0.018991336226463318,0.0147124994546175,-0.01954585313796997,0.0,1791183676672,-0.0049500004,8.821051,4.44495,-0.050666,8.961847,3.965192,0.038476,-0.168809,0.530437,0.048125,0.014712499,0.0143,
36474033891011,0.04658699035644531,-0.06309434324502945,9.79385399267431,0.43592724204063416,0.17946796532183434,0.11346659660339356,0.0123341279104352,0.01677500084042549,-0.018102100118994713,0.0,1791183676682,-0.064050004,8.776051,4.347,-0.049091,8.961871,3.965155,0.04169,-0.140103,0.432312,0.044825,0.016775,-0.006875,
36474043884934,-0.05478310585021973,-0.06628657430410385,9.710633912304226,0.3510003417730332,0.17872238436925617,0.06779819130897521,0.013273290358483791,0.025299999862909317,-0.014175605028867722,0.0,1791183676693,-0.16995001,8.709001,4.29195,-0.050426,8.961754,3.965401,-0.083868,-0.2166,0.353057,0.0353375,0.0253,-0.023924999,
36474053879088,-0.14585687220096588,-0.07616417482495308,9.633113772668498,0.22109919786453247,0.177382950346118,0.002059200406074524,0.01678013615310192,0.02956249937415123,-0.008991090580821037,0.0,1791183676704,-0.261,8.637,4.25805,-0.053374,8.961178,3.966669,-0.174293,-0.30461,0.325453,0.02255,0.0295625,-0.025024999,
36474063873165,-0.17615485191345215,-0.08789551630616188,9.61546962540508,0.08122986853122711,0.17584268195547678,0.054031473398208615,0.02330746129155159,0.03382499888539314,-0.003009998705238104,0.0,1791183676711,-0.33,8.61495,4.25805,-0.056916,8.960066,3.969133,-0.233001,-0.320257,0.284683,0.0077,0.033825,-0.0187,
36474073867306,-0.19137312471866608,-0.09538554400205612,9.655998262001093,0.05887412130832673,0.17689725348499208,0.1043161928653717,0.015004882588982582,0.018975000828504562,0.0038269239012151957,0.0,1791183676723,-0.36105,8.611051,4.35405,-0.059742,8.958187,3.97333,-0.290029,-0.349503,0.31161,-0.00935,0.018975,-0.0059125,
36474083861242,-0.0884649008512497,-0.09436173588037491,9.780397393399756,0.17312987446784972,0.17687508944843883,0.1313265711069107,-0.0024167667143046856,-0.007699999958276749,0.006352567113935947,0.0,1791183676732,-0.37800002,8.6629505,4.524,-0.060169,8.955458,3.979465,-0.294391,-0.313255,0.482646,-0.0158125,-0.0077,0.0111375,
36474093855395,-0.004223525524139404,-0.08351845145225525,9.855026896779549,0.2304784506559372,0.17541514362189708,0.12121465504169464,-0.005959811620414257,-0.01718750037252903,6.399566191248596E-4,0.0,1791183676742,-0.24405001,8.718,4.58895,-0.058548,8.952728,3.985629,-0.252916,-0.26743,0.586615,-0.001925,-0.0171875,0.023924999,
36474103849462,0.04104448854923248,-0.06392838433384895,9.896196517622213,0.21939175128936766,0.16610743510843864,0.08383438289165497,-0.014868502505123615,-0.02681249938905239,-0.008868517354130745,0.0,1791183676752,-0.17895001,8.745001,4.629,-0.055258,8.950721,3.990183,-0.172409,-0.239086,0.634733,0.02145,-0.0268125,0.023924999,
36474113843614,0.07415540516376495,-0.04282160848379135,9.886852954286052,0.16513638496398925,0.15512985355093145,0.033772331476211545,-0.02782648801803589,-0.03849999979138374,-0.017966777086257935,0.0,1791183676762,-0.177,8.766001,4.5690002,-0.051254,8.949692,3.992546,-0.126135,-0.197356,0.622794,0.0438625,-0.0385,0.0185625,
36474123837549,0.023959219455718994,-0.024729835987091064,9.817004306980763,0.1041724592447281,0.14002886017410723,0.009294137358665466,-0.03565807640552521,-0.042762499302625656,-0.02525193616747856,0.0,1791183676772,-0.23895001,8.73495,4.47405,-0.047957,8.949745,3.992465,-0.136614,-0.211774,0.531895,0.061875,-0.0427625,0.009075,
36474133831688,-0.04333782196044922,-0.011245623230934143,9.746472044655414,0.049478638172149654,0.12364444884944725,0.01831955313682556,-0.0399075448513031,-0.04592499881982803,-0.027410224080085754,0.0,1791183676782,-0.35595003,8.6629505,4.452,-0.046078,8.950347,3.991138,-0.28454,-0.257865,0.468578,0.0672375,-0.045925,0.005775,
36474143825770,-0.07391861081123352,-0.0018081560730934144,9.730916888234107,0.002321335673332214,0.11061021514252713,0.004380536079406738,-0.02747240662574768,-0.03423750028014183,-0.025687357410788536,0.0,1791183676793,-0.38505003,8.637,4.46595,-0.04494,8.950756,3.990235,-0.312014,-0.291793,0.469482,0.062975,-0.0342375,0.0100375,
36474153819922,-0.10346484184265137,7.418207824230194E-4,9.678834376896448,0.029510143399238582,0.1076086673126162,0.024521329998970033,0.014305096119642258,0.006187499966472387,-0.02226874604821205,0.0,1791183676803,-0.35205,8.60805,4.4110503,-0.04456,8.950829,3.990074,-0.343519,-0.315808,0.450488,0.054449998,0.0061875,0.0218625,
36474163814076,-0.16366265714168549,-0.006082844734191894,9.65768397711343,0.03223125040531159,0.1133381629268874,0.07208494246006011,0.06613750755786896,0.05623750016093254,-0.015845194458961487,0.0,1791183676812,-0.33495003,8.62005,4.34205,-0.04463,8.950521,3.990765,-0.312324,-0.351414,0.38276,0.0385,0.0562375,0.0367125,
36474173808009,-0.15223301947116852,-0.017745348066091536,9.645486289308565,0.024003180861473086,0.11575059097904905,0.10732339024543762,0.10874169319868088,0.0966624990105629,-0.008519657887518406,0.0,1791183676823,-0.201,8.649,4.2649503,-0.044555,8.949814,3.992348,-0.209448,-0.310005,0.318928,0.02035,0.0966625,0.0504625,
36474183802088,-0.0991211086511612,-0.0295051172375679,9.719437193155347,0.0027346074581146157,0.11139113089906247,0.11848004758358002,0.12932759523391724,0.11577499657869339,-0.004235329106450081,0.0,1791183676832,-0.12195001,8.77095,4.1860504,-0.043304,8.948987,3.994213,-0.093384,-0.220593,0.250025,0.0097624995,0.115775,0.058025,
36474193796244,-0.06228246912360191,-0.041297186724841596,9.746404492273655,0.032318436354398725,0.10129609423084103,0.1161528192460537,0.1252834051847458,0.11467500030994415,-2.6998581597581506E-4,0.0,1791183676842,0.034950003,8.875951,4.026,-0.041545,8.948373,3.995615,0.041326,-0.117028,0.10976,1.375E-4,0.114675,0.0504625,
36474203790172,-0.04981927201151848,-0.0529300544410944,9.798776360127757,0.07165137380361557,0.0872775770209962,0.10542370527982711,0.08610286563634872,0.08167500048875809,0.0033078347332775593,0.0,1791183676852,0.126,8.950951,3.9850502,-0.039081,8.948108,3.99623,0.144207,-0.044937,-0.020142,-0.0083875,0.081675,0.0281875,
36474213784353,0.02645697444677353,-0.0568221315741539,9.835135861023916,0.07669391632080078,0.08173922570259974,0.06739977896213531,0.025647472590208054,0.030662499368190765,0.006864674389362335,0.0,1791183676862,0.093,8.958,4.059,-0.037087,8.947643,3.99729,0.161366,0.027353,0.005133,-0.016775,0.0306625,-0.0059125,
36474223778438,0.047444697469472885,-0.057452420331537725,9.84463359179202,0.04578378871083259,0.08087967640860495,0.027464235574007033,-0.03131428360939026,-0.0193875003606081,0.008710109628736973,0.0,1791183676872,0.069000006,8.89305,4.22205,-0.036217,8.946563,3.999715,0.093459,-0.009873,0.139178,-0.0210375,-0.0193875,-0.03355,
36474233772592,0.08924195170402527,-0.05531967226415872,9.900677211205611,0.005827840417623521,0.08409355166819872,0.010208376497030259,-0.06787882000207901,-0.05128749832510948,0.0061999293975532055,0.0,1791183676882,-0.06705,8.84805,4.4419503,-0.035933,8.944868,4.003505,0.059656,-0.053668,0.338895,-0.014712499,-0.0512875,-0.0517,
36474243766515,0.102759949862957,-0.04744251947849989,9.978399192313109,0.06773819029331207,0.09087969986515224,0.04321686029434204,-0.09620392322540283,-0.0789249986410141,1.6767665510997176E-4,0.0,1791183676893,-0.22005,8.809051,4.68195,-0.037114,8.942739,4.008248,-0.125909,-0.135336,0.552024,1.375E-4,-0.078925,-0.059125,
36474253760671,0.12103681266307831,-0.03409783523529768,9.951664651304831,0.14947301968932153,0.09495280025825407,0.0773880772292614,-0.09279215335845947,-0.07796250283718109,-0.01031973771750927,0.0,1791183676903,-0.342,8.72295,4.7779503,-0.038872,8.940666,4.012855,-0.243862,-0.197907,0.734166,0.0257125,-0.0779625,-0.0526625,
36474263754760,0.0902634859085083,-0.020776918344199657,9.908457879375316,0.19747276976704597,0.09275162834431061,0.09014937952160836,-0.051909349858760834,-0.040699999779462814,-0.01821873150765896,0.0,1791183676911,-0.38505003,8.685,4.75395,-0.041548,8.93918,4.016134,-0.322589,-0.239517,0.750041,0.044825,-0.0407,-0.0356125,
36474273748908,0.008047789335250854,-0.010805872641503811,9.822153343042322,0.20075004547834396,0.08420114438229558,0.08226999789476394,0.01753908395767212,0.026399999856948853,-0.019662123173475266,0.0,1791183676923,-0.51195,8.658,4.60995,-0.045651,8.938083,4.018532,-0.426225,-0.298274,0.67821,0.048125,0.0264,-0.0154,
36474283742851,-0.030768245458602905,-0.007921039871871472,9.787996990651854,0.174420777708292,0.08246143970656698,0.05826795846223831,0.09775754064321518,0.10188750177621841,-0.014110506512224674,0.0,1791183676932,-0.50505,8.68995,4.4760003,-0.051428,8.937144,4.020551,-0.492274,-0.268605,0.515779,0.0342375,0.1018875,0.0122375,
36474293737021,-0.030141115188598633,-0.009216919355094434,9.789032400931449,0.1371114507317543,0.08259668723127586,0.031687745451927186,0.1624152660369873,0.16362500190734863,-0.007696077693253756,0.0,1791183676942,-0.40395,8.7640505,4.34205,-0.057266,8.936186,4.022599,-0.393062,-0.205397,0.377262,0.0182875,0.163625,0.032449998,
36474303731081,-0.03980453312397003,-0.013259370438754558,9.795427768374626,0.06691925525665282,0.08201427302850928,4.8052370548248293E-4,0.19442272186279297,0.19772499799728394,-0.00202920101583004,0.0,1791183676952,-0.34005,8.838,4.21005,-0.063105,8.935245,4.024605,-0.301032,-0.156572,0.245969,0.0044,0.197725,0.0345125,
36474313725264,-0.037341613322496414,-0.018834221363067626,9.767624261892445,0.0014626920223236063,0.07963788413186393,0.026001543551683427,0.19673515856266022,0.2040500044822693,0.001510145142674446,0.0,1791183676962,-0.29700002,8.85495,4.1119504,-0.069581,8.934524,4.026099,-0.263431,-0.095996,0.117583,-0.004125,0.20405,0.0259875,
36474323719197,-0.061495888978242874,-0.02310697678476572,9.754140565297055,0.05011865571141243,0.07951963980952358,0.03991027921438217,0.17787612974643707,0.18809999525547028,0.003723260248079896,0.0,1791183676972,-0.261,8.862,4.0669503,-0.075943,8.933822,4.027537,-0.190032,-0.097688,0.063472,-0.00935,0.1881,0.0154,
36474333713353,-0.03040659800171852,-0.022460415586829187,9.786032857569259,0.08305481001734732,0.0794050057787487,0.03983794972300529,0.14294567704200745,0.1551000028848648,0.001664574141614139,0.0,1791183676982,-0.261,8.91705,4.0230002,-0.081852,8.933432,4.028292,-0.172151,-0.04702,0.026804,-0.004125,0.1551,0.0037125,
36474343707433,-0.03128138557076454,-0.020328554324805737,9.764638209531363,0.11745408102869988,0.07856273476062191,0.04006600379943848,0.09199190884828568,0.10408750176429749,-0.0031037956941872835,0.0,1791183676994,-0.25800002,8.89995,4.0090504,-0.086751,8.933632,4.027742,-0.160069,-0.035249,-0.001376,0.0077,0.1040875,-0.006875,
36474353701329,-0.03471973165869713,-0.016891298815608025,9.781181955116,0.12919842302799225,0.07632209216060967,0.0390490435063839,0.023583583533763885,0.03492499887943268,-0.007783536799252033,0.0,1791183677002,-0.342,8.89995,4.04295,-0.090337,8.934362,4.026044,-0.204368,-0.03598,-0.009254,0.0193875,0.034925,-0.0196625,
36474363695473,-0.006003279238939285,-0.009008329920470714,9.792047765890867,0.11505137458443641,0.06849639713475375,0.03278137668967247,-0.03354119509458542,-0.025712499395012856,-0.011630084365606308,0.0,1791183677012,-0.44295,8.833051,4.203,-0.092833,8.935213,4.0241,-0.29764,-0.055984,0.102822,0.028875,-0.0257125,-0.023924999,
36474373689550,-0.027651280164718628,-0.00277924295514822,9.834109898619396,0.08428041338920593,0.06037107992131777,0.02601245492696762,-0.06153085082769394,-0.057750001549720764,-0.014759142883121967,0.0,1791183677023,-0.483,8.776051,4.4110503,-0.09442,8.935543,4.023328,-0.36309,-0.161659,0.28316,0.0364375,-0.05775,-0.0207625,
36474383683697,0.025842279195785522,0.0034689264371991157,9.882025871099627,0.046450424939394,0.05641364633076877,0.014762679487466812,-0.050566598773002625,-0.05238749831914902,-0.015750877559185028,0.0,1791183677032,-0.51705,8.757,4.54995,-0.0952,8.935262,4.023935,-0.419771,-0.185319,0.464512,0.0385,-0.0523875,-0.0059125,
36474393677613,0.06301705539226532,0.009733902662992478,9.89569508668723,0.004577532410621643,0.055717019369454064,0.00409700870513916,0.004873776808381081,-0.0012374999932944775,-0.013763466849923134,0.0,1791183677042,-0.50295,8.72805,4.63605,-0.095904,8.934412,4.025803,-0.416673,-0.198835,0.584748,0.0331375,-0.0012375,0.0154,
36474403671762,0.09308864176273346,0.016879298351705076,9.953751947352792,0.055660226941108705,0.05677500474413455,0.02965868338942528,0.0711265504360199,0.06366249918937683,-0.010441076941788197,0.0,1791183677052,-0.47895002,8.766001,4.6909504,-0.097316,8.93294,4.029037,-0.398502,-0.192575,0.643764,0.0246125,0.0636625,0.032449998,
36474413665852,0.1264776736497879,0.021880333311855793,9.993172232502596,0.09606515318155288,0.061598655930577895,0.05615487396717071,0.13070760667324066,0.12319999933242798,-0.007985927164554596,0.0,1791183677063,-0.43800002,8.800051,4.71495,-0.099639,8.931095,4.033064,-0.353084,-0.169182,0.673255,0.0182875,0.1232,0.0452375,
36474423660004,0.16081345081329346,0.027548770979046823,10.004615200832486,0.1336857698857784,0.06851793158043477,0.09384782016277313,0.18286462128162384,0.17861250042915344,-0.011111533269286156,0.0,1791183677072,-0.37305,8.839951,4.66995,-0.10303,8.929426,4.036677,-0.277866,-0.1316,0.67443,0.0257125,0.1786125,0.0495,
36474433653929,0.16003219783306122,0.03108828328549862,9.945436527024114,0.16075180768966674,0.0732766626754011,0.12068580389022827,0.21275439858436584,0.2125750035047531,-0.01593071222305298,0.0,1791183677081,-0.273,8.863951,4.5019503,-0.107585,8.92864,4.038295,-0.244581,-0.07096,0.538737,0.0374,0.212575,0.0473,
36474443648083,0.11538373678922653,0.031719472631812094,9.902354323244968,0.17020818367600443,0.07394265127397086,0.13115914016962052,0.20904721319675446,0.2125750035047531,-0.02242136187851429,0.0,1791183677093,-0.22695,8.90505,4.32495,-0.112128,8.929105,4.037143,-0.134693,-0.049876,0.386661,0.05335,0.212575,0.038775,
36474453642160,0.08145548403263092,0.029740406200289726,9.83094370467872,0.16161388531327248,0.07203057096451311,0.12883250862360002,0.17724652588367462,0.18603749573230743,-0.029217949137091637,0.0,1791183677103,-0.15105,8.91495,4.1410503,-0.116674,8.930981,4.032861,-0.079869,-0.003868,0.204195,0.0704,0.1860375,0.0207625,
36474463636283,0.022437747567892075,0.026349119283258914,9.78622849235211,0.13403697833418846,0.07068533517503355,0.10802452340722084,0.1305413842201233,0.14451250433921814,-0.03241793066263199,0.0,1791183677112,-0.19605,8.93595,3.9850502,-0.120986,8.933961,4.02613,-0.042038,0.009911,0.03136,0.078925,0.1445125,-5.5E-4,
36474473630214,-0.027179302647709846,0.02458776468411088,9.737272508573728,0.085188652202487,0.07155300065413464,0.07042597271502019,0.08834923058748245,0.10724999755620956,-0.02989760786294937,0.0,1791183677122,-0.22995001,8.92395,3.8890502,-0.126011,8.937315,4.018527,-0.089685,0.004162,-0.078351,0.0735625,0.10725,-0.0207625,
36474483624367,-0.09984452277421951,0.021133950818330048,9.699941874960459,0.014353619888424875,0.07568922240022519,0.018450628593564035,0.06295338273048401,0.08387500047683716,-0.021870460361242294,0.0,1791183677132,-0.25095,8.89095,3.8700001,-0.131262,8.940234,4.011856,-0.108376,-0.04664,-0.143507,0.054449998,0.083875,-0.03135,
36474493618439,-0.09607694298028946,0.01783715942874551,9.736510706710593,0.05350019074976445,0.07920512998308336,0.023841507360339166,0.05023075267672539,0.06998749822378159,-0.010062025859951973,0.0,1791183677141,-0.34395,8.89305,3.9490502,-0.136827,8.942015,4.007696,-0.186609,-0.053209,-0.122587,0.0257125,0.0699875,-0.032449998,
36474503612582,-0.04944874346256256,0.01735494891181588,9.786707231449586,0.10617722682654857,0.0795830477490799,0.05002235285937786,0.04740625619888306,0.06366249918937683,3.236844786442816E-4,0.0,1791183677153,-0.483,8.851951,4.1460004,-0.14251,8.942225,4.007027,-0.288664,-0.074968,0.036098,1.375E-4,0.0636625,-0.026124999,
36474513606490,0.021373286843299866,0.020290693920105695,9.881405495853423,0.14408306516706942,0.07858794148120062,0.050235245004296304,0.04432516545057297,0.05403750017285347,9.721537935547531E-4,0.0,1791183677162,-0.52605003,8.83605,4.392,-0.147884,8.941243,4.009027,-0.376664,-0.097928,0.256759,-0.001925,0.0540375,-0.0122375,
36474523600598,0.08293847739696503,0.02751241223886609,9.907751462238842,0.1488974928855896,0.07736728192456965,0.028211688995361327,0.04436492919921875,0.043449997901916504,-0.007674629334360361,0.0,1791183677172,-0.615,8.776051,4.557,-0.150881,8.939971,4.011755,-0.361697,-0.130174,0.479086,0.0182875,0.043449998,0.0122375,
36474533594750,0.089313805103302,0.033498432394117116,9.911978203411289,0.12153916358947754,0.07728585831659981,0.009619976580142974,0.01953595131635666,0.008249999955296516,-0.022327668964862823,0.0,1791183677182,-0.38805002,8.81595,4.5139503,-0.151589,8.939692,4.012349,-0.380142,-0.117923,0.466521,0.05335,0.00825,0.03135,
36474543588899,0.08291411399841309,0.039208207372576,9.889318538321897,0.08341432064771653,0.07650344177925332,0.045418187975883484,0.0536467507481575,0.03698749840259552,-0.03308023512363434,0.0,1791183677192,-0.246,8.81595,4.47405,-0.14872,8.940629,4.010363,-0.217811,-0.147591,0.523574,0.078925,0.0369875,0.0515625,
36474553582807,0.05509963631629944,0.04369917577132583,9.847554059792357,0.04169665947556496,0.0746456138975099,0.06632786393165588,0.06894785165786743,0.05403750017285347,-0.040442969650030136,0.0,1791183677202,-0.29700002,8.842951,4.3230004,-0.145247,8.942785,4.005685,-0.135093,-0.116229,0.389388,0.097075,0.0540375,0.0515625,
36474563576978,0.02210642397403717,0.04510466093197465,9.802752001099849,0.003951481357216846,0.07395801464618905,0.06647449135780334,0.07826653867959976,0.06476250290870667,-0.04119075834751129,0.0,1791183677211,-0.23895001,8.874001,4.158,-0.142681,8.945734,3.999187,-0.135265,-0.092842,0.257023,0.0991375,0.0647625,0.0504625,
36474573571053,-0.042103707790374756,0.044382039550691844,9.725495897213017,0.02301542572677135,0.07473191673751325,0.041466054320335385,0.08625024557113647,0.07851249724626541,-0.0357295386493206,0.0,1791183677222,-0.13905,8.895,3.9300003,-0.140628,8.949041,3.991855,-0.036761,-0.067419,0.046482,0.08635,0.0785125,0.038775,
36474583565207,-0.11041215062141418,0.03756931805983186,9.69011742791364,0.025362370535731316,0.08197147147027205,0.0015208631753921508,0.08182790875434875,0.08167500048875809,-0.02242271788418293,0.0,1791183677231,-0.094950005,8.910001,3.8080502,-0.139589,8.951991,3.985271,0.036419,-0.060791,-0.133681,0.054449998,0.081675,0.0196625,
36474593559120,-0.12582674622535706,0.028127127978950738,9.6929966355061,0.009795043990015982,0.0890657145365465,0.04022730886936188,0.06122017651796341,0.06902500241994858,-0.009553696028888226,0.0,1791183677241,-0.11895001,8.92395,3.7819502,-0.140018,8.95397,3.980805,0.029666,-0.053194,-0.18907,0.02365,0.069025,-0.0037125,
36474603553276,-0.11239653825759888,0.017852868977934123,9.697553169375821,0.02349129877984523,0.0927549795582946,0.07372654378414153,0.021192412823438644,0.03382499888539314,2.8924932121299207E-4,0.0,1791183677251,-0.12900001,8.89095,3.8700001,-0.141347,8.954844,3.97879,0.011841,-0.04928,-0.165507,1.375E-4,0.033825,-0.023924999,
36474613547351,-0.09772128611803055,0.006642920989543199,9.712727349467333,0.06948039680719376,0.09249716296062602,0.09769208580255509,-0.03001050278544426,-0.016224998980760574,0.005239755846560001,0.0,1791183677262,-0.25395,8.839951,4.01595,-0.142571,8.954687,3.979103,-0.027635,-0.082641,-0.055687,-0.01155,-0.016224999,-0.0378125,
36474623541264,-0.05651087686419487,-0.004223295394331217,9.741054203431291,0.11019349619746209,0.0863055212203957,0.10057351961731911,-0.0883263573050499,-0.0789249986410141,7.960415678098798E-5,0.0,1791183677272,-0.342,8.781,4.203,-0.143096,8.954069,3.980471,-0.151609,-0.125119,0.136874,0.0012375,-0.078925,-0.039875,
36474633535420,-0.03969993442296982,-0.014209902007132768,9.79532220604279,0.1318492643535137,0.07786428529534602,0.08643107637763023,-0.13478682935237885,-0.1354375034570694,-0.011801477521657944,0.0,1791183677281,-0.342,8.788051,4.31295,-0.141021,8.953747,3.981273,-0.206356,-0.177469,0.29409,0.029975,-0.1354375,-0.026124999,
36474643529510,-0.023395955562591553,-0.021148886624723674,9.816132305808889,0.132272782176733,0.07196659666264621,0.06594491824507713,-0.1658644825220108,-0.1779250055551529,-0.025938278064131737,0.0,1791183677292,-0.38505003,8.86905,4.18905,-0.13589,8.954531,3.979689,-0.295284,-0.17107,0.317222,0.064075,-0.177925,-0.0059125,
36474653523644,0.013576216995716095,-0.024542849976569414,9.80364749158658,0.10722485855221747,0.06856807453285568,0.04075036719441414,-0.2028627097606659,-0.22577500343322754,-0.03260185569524765,0.0,1791183677302,-0.19800001,8.85,4.2130504,-0.12627,8.956797,3.974907,-0.113368,-0.087144,0.226235,0.080025,-0.225775,0.0111375,
36474663517567,0.034191329032182693,-0.023955170903354882,9.885116300405402,0.05583389848470688,0.06901711266316514,0.01436784416437149,-0.2039695382118225,-0.227974995970726,-0.03340725600719452,0.0,1791183677311,-0.057000004,8.967,4.1599503,-0.114114,8.959234,3.969778,0.044463,-0.056063,0.212211,0.0820875,-0.227975,0.0133375,
36474673511713,0.07402345538139343,-0.01889503300189972,9.848768327308836,0.010218159109354018,0.0722303790238938,0.01173902228474617,-0.211122065782547,-0.227974995970726,-0.027151407673954964,0.0,1791183677322,-0.049950004,8.971951,4.0620003,-0.102494,8.961617,3.964708,0.068756,0.020562,0.138272,0.0672375,-0.227975,-0.0048125,
36474683505783,0.08336736261844635,-0.009734438732266426,9.92211041910306,0.07657979056239128,0.07299691808386968,0.036352481693029404,-0.23888635635375977,-0.24502499401569366,-0.016112910583615303,0.0,1791183677332,0.0139500005,9.06105,4.04295,-0.092882,8.963346,3.961039,0.095057,0.064323,0.062933,0.0407,-0.245025,-0.0356125,
36474693499937,0.16775524616241455,0.0034571707248687742,9.816646187862482,0.14830926582217216,0.07973022952358327,0.07458272203803062,-0.263788104057312,-0.25561249256134033,-0.0037487680092453957,0.0,1791183677341,0.11400001,8.8279505,4.29195,-0.084938,8.963651,3.960527,0.194852,0.083171,0.231039,0.0108624995,-0.2556125,-0.073975,
36474703493870,0.00458180159330368,0.006158697977662086,9.942188871833643,0.17047592476010323,0.07880179377599728,0.07278383895754814,-0.2297540307044983,-0.18328750133514404,0.00597393000498414,0.0,1791183677351,0.16395001,9.003,4.215,-0.082944,8.962197,3.963857,0.540017,-0.09494,0.237285,-0.01155,-0.1832875,-0.1538625,
36474713488016,0.226654052734375,0.016422736272215844,10.010544248464996,0.21184990331530573,0.09232393031034614,0.1112763836979866,-0.2016480565071106,-0.1428624987602234,0.014938099309802055,0.0,1791183677362,-0.32805002,8.967,4.4380503,-0.090602,8.959797,3.969113,-0.225651,0.046324,0.449902,-0.0328625,-0.1428625,-0.17613749,
36474723482091,0.10504000633955002,0.017527812719345094,9.858773020054809,0.20391077026724813,0.09324119663987727,0.11747969388961792,-0.13253232836723328,-0.07576250284910202,0.018357951194047928,0.0,1791183677374,-0.07395,8.769,4.50495,-0.101078,8.956347,3.976634,-0.085888,-0.096272,0.473505,-0.041249998,-0.0757625,-0.157025,
36474733476250,-0.021704137325286865,0.011976915597915649,9.832354923235822,0.16241031214594842,0.09209996825228181,0.09646539390087128,-0.09228195250034332,-0.023649999871850014,0.020128274336457253,0.0,1791183677382,-0.15105,8.706,4.56705,-0.1125,8.952157,3.985755,0.05482,-0.259675,0.531422,-0.04455,-0.02365,-0.1750375,
36474743470160,0.02544596791267395,0.009103508293628692,9.809692220264205,0.1087539054453373,0.09072824337108207,0.06800353825092316,-0.029563970863819122,0.04661250114440918,0.020503906533122063,0.0,1791183677392,-0.34395,8.665951,4.584,-0.12865,8.947639,3.995403,-0.137324,-0.24558,0.607965,-0.04455,0.0466125,-0.1783375,
36474753464232,-0.06563732028007507,0.003066660463809967,9.69423256872542,0.0683275580406189,0.09148058808633774,0.05395971387624741,0.05025717243552208,0.12223749607801437,0.02088405005633831,0.0,1791183677401,-0.47400004,8.601001,4.44705,-0.147652,8.943123,4.004843,-0.278734,-0.308102,0.517122,-0.0455125,0.122237496,-0.1516625,
36474763458382,-0.17281082272529602,-0.006679201871156693,9.602261685772506,0.03767228350043297,0.09900623712115576,0.025933261215686797,0.11369979381561279,0.17641249299049377,0.024588540196418762,0.0,1791183677411,-0.56505,8.57505,4.2840004,-0.167207,8.938766,4.013791,-0.378889,-0.35163,0.345369,-0.0551375,0.1764125,-0.1175625,
36474773452534,-0.269351989030838,-0.018041615933179857,9.539113867586794,0.1371641419827938,0.11428138698101449,0.1008116602897644,0.14824873208999634,0.19772499799728394,0.03202008083462715,0.0,1791183677421,-0.54105,8.553,4.18905,-0.185441,8.934301,4.022922,-0.401356,-0.392655,0.197374,-0.07425,0.197725,-0.0814,
36474783446442,-0.25403639674186707,-0.0252228282392025,9.619382792407588,0.22186083421111108,0.12396260179843643,0.14727811217308046,0.13698957860469818,0.17118750512599945,0.0381510891020298,0.0,1791183677432,-0.48600003,8.5990505,4.2840004,-0.199345,8.929369,4.033191,-0.294079,-0.370963,0.189499,-0.0902,0.1711875,-0.0506,
36474793440540,-0.12282778322696686,-0.02507288008928299,9.744041753851576,0.24971670135855675,0.12384257388471051,0.1769328624010086,0.10391545295715332,0.12540000677108765,0.035690248012542725,0.0,1791183677442,-0.31095,8.6629505,4.4500504,-0.208578,8.92418,4.044199,-0.215414,-0.289159,0.329327,-0.084975,0.1254,-0.0292875,
36474803434701,0.002759009599685669,-0.019315102696418764,9.876401802238785,0.2745299801230431,0.12231635518716336,0.16325359642505646,0.07712861150503159,0.09129999577999115,0.02541239932179451,0.0,1791183677452,-0.117000006,8.74005,4.59795,-0.212837,8.919415,4.054473,0.016293,-0.210175,0.469887,-0.0605,0.091299996,-0.0176,
36474813428641,0.11829258501529694,-0.008514409139752387,9.922580322834941,0.22251260876655576,0.12443493509018427,0.10503291487693786,0.06045025587081909,0.07644999772310257,0.008367602713406086,0.0,1791183677466,0.08505,8.781,4.6200004,-0.214427,8.915895,4.06212,0.202237,-0.132434,0.586738,-0.018975,0.07645,-0.0229625,
36474823422795,0.0758887231349945,-0.0018944291397929192,9.87143823896518,0.13245016634464263,0.12522475924068194,0.035984772443771365,0.05838193744421005,0.0859375,-0.009644648991525173,0.0,1791183677471,0.13605,8.806951,4.45695,-0.216098,8.914372,4.065377,0.352349,-0.138094,0.504473,0.0257125,0.0859375,-0.0463375,
36474833416886,-5.8941543102264404E-5,8.762050420045853E-5,9.68954843129287,0.05319281965494156,0.12492404670577066,0.014810718595981598,0.075882688164711,0.11893749982118607,-0.020027965307235718,0.0,1791183677482,0.08505,8.778001,4.1020503,-0.2213,8.914999,4.063721,0.336003,-0.098019,0.23319,0.0523875,0.1189375,-0.075075,
36474843411038,-0.22304923832416534,-0.00989504363387823,9.515062208210036,0.05919328629970551,0.13404586093273135,0.005233572423458099,0.08806665986776352,0.14135000109672546,-0.016782313585281372,0.0,1791183677492,-0.012,8.72595,3.79395,-0.230297,8.916905,4.059033,0.249232,-0.181328,-0.12604,0.045925,0.14135,-0.0952875,
36474853404968,-0.3844839334487915,-0.02979805115610361,9.34364738763829,0.05674889981746674,0.15671777161390707,0.08268216103315354,0.09362304955720901,0.1508374959230423,-0.0014545985031872988,0.0,1791183677501,-0.06705,8.629951,3.5809503,-0.241432,8.91857,4.05473,0.224453,-0.23806,-0.392282,0.0097624995,0.1508375,-0.1049125,
36474863399127,-0.49012383818626404,-0.05601380951702595,9.314420504300438,0.10355378538370133,0.18510389899889532,0.20436544567346573,0.07748974859714508,0.12966249883174896,0.020569633692502975,0.0,1791183677512,-0.22995001,8.623051,3.5140502,-0.252835,8.918709,4.053731,0.106569,-0.29566,-0.527752,-0.043449998,0.1296625,-0.10065,
36474873393203,-0.4730852246284485,-0.08336924351751804,9.370286778834027,0.16688212305307387,0.20338898054535084,0.3141602352261543,0.03463439643383026,0.07535000145435333,0.040154580026865005,0.0,1791183677522,-0.37095,8.61795,3.66,-0.262888,8.916866,4.05714,-0.010269,-0.293817,-0.497643,-0.091299996,0.07535,-0.0878625,
36474883387355,-0.3809645473957062,-0.10658583901822567,9.468738205604655,0.2134084939956665,0.20944249939748188,0.3903413563966751,-0.02950887754559517,-0.005499999970197678,0.04854007437825203,0.0,1791183677532,-0.47595003,8.611051,3.9090002,-0.269531,8.913145,4.064872,-0.149672,-0.290096,-0.292291,-0.1126125,-0.0055,-0.06655,
36474893381270,-0.25317296385765076,-0.12763224951922894,9.62837247550112,0.23311250507831574,0.20182776535060123,0.3963661015033722,-0.10228713601827621,-0.09487500041723251,0.04276011511683464,0.0,1791183677541,-0.52605003,8.649,4.19805,-0.271656,8.908579,4.074732,-0.260075,-0.280741,-0.012453,-0.099825,-0.094875,-0.0452375,
36474903375366,-0.15091991424560547,-0.13540733531117438,9.708609443776615,0.24462038278579715,0.1995672390653994,0.349653297662735,-0.16616718471050262,-0.17366249859333038,0.024948563426733017,0.0,1791183677551,-0.49500003,8.665951,4.3489504,-0.268674,8.904654,4.083497,-0.277422,-0.262451,0.191866,-0.0583,-0.1736625,-0.023924999,
36474913369513,-0.10946695506572723,-0.1522133857011795,9.736957083953207,0.23753714859485625,0.18172468822140075,0.2735219210386276,-0.2259228378534317,-0.2428250014781952,0.0038551499601453543,0.0,1791183677564,-0.37995002,8.661,4.43295,-0.261106,8.902273,4.089176,-0.205982,-0.264859,0.301109,-0.0083875,-0.242825,-0.0133375,
36474923363667,-0.028452545404434204,-0.1588880132883787,9.788282063883083,0.19940610378980636,0.17445969032834568,0.18459538519382476,-0.2707681655883789,-0.2928749918937683,-0.015382600948214531,0.0,1791183677571,-0.21300001,8.680051,4.51905,-0.249276,8.901671,4.091221,-0.028669,-0.20919,0.385254,0.0374,-0.292875,-0.009075,
36474933357598,-0.010876506567001343,-0.15834663175046443,9.808637688430386,0.10534420460462571,0.1749008003708858,0.1105777770280838,-0.2764248549938202,-0.29493749141693115,-0.027669046074151993,0.0,1791183677583,-0.08595,8.71605,4.49805,-0.235623,8.902313,4.090642,0.132453,-0.197861,0.41217,0.0672375,-0.2949375,-0.0165,
36474943351752,0.0318630114197731,-0.1580257795751095,9.773344103978202,0.02911157906055451,0.17524322086020544,0.05357058197259903,-0.23702527582645416,-0.24502499401569366,-0.030910201370716095,0.0,1791183677592,-0.124050006,8.754001,4.3440003,-0.22411,8.903745,4.088173,0.1377,-0.12986,0.366755,0.0757625,-0.245025,-0.0303875,
36474953345841,-0.02506190538406372,-0.15599700883030893,9.792067052517087,0.17596646547317504,0.1765311835573899,0.02839898020029068,-0.16693241894245148,-0.16403749585151672,-0.022737769410014153,0.0,1791183677602,0.12900001,8.718,4.45695,-0.216355,8.905049,4.085742,0.206559,-0.16229,0.304543,0.056649998,-0.1640375,-0.039875,
36474963340004,-0.004105791449546814,-0.14756175726652146,9.798767722490178,0.30683348774909974,0.17953138215424685,0.007326747477054596,-0.0673227608203888,-0.04702499881386757,-0.0063672978430986404,0.0,1791183677611,0.018000001,8.79705,4.3159504,-0.212605,8.904691,4.086722,0.336884,-0.13799,0.308351,0.0182875,-0.047025,-0.058025,
36474973333909,-0.04785755276679993,-0.13648703545331956,9.750809022777583,0.37913360744714736,0.1785056612745384,0.011207748949527741,0.028852785006165504,0.06146249920129776,0.016505196690559387,0.0,1791183677621,-0.13095,8.78505,4.22895,-0.216227,8.902858,4.090521,0.137,-0.12658,0.168082,-0.036025,0.0614625,-0.06655,
36474983328060,-0.07870360463857651,-0.12772039584815503,9.711618317183515,0.37159293293952944,0.17681479226569885,0.024773168563842773,0.09396221488714218,0.12856249511241913,0.036887381225824356,0.0,1791183677631,-0.28695002,8.757,4.18905,-0.224106,8.899122,4.098218,-0.008349,-0.141998,0.119684,-0.084975,0.1285625,-0.059125,
36474993322135,-0.08594536781311035,-0.12587627507746219,9.748834255385201,0.30131845325231554,0.1770483853301089,0.048334844410419464,0.11418376117944717,0.14561249315738678,0.05018414556980133,0.0,1791183677641,-0.43800002,8.754001,4.26795,-0.233802,8.893931,4.108932,-0.135123,-0.146384,0.104181,-0.116875,0.1456125,-0.0495,
36475003316274,-0.02602481096982956,-0.12731546610593797,9.826574550140672,0.22499449551105496,0.1761113948562262,0.04852742552757263,0.0934031754732132,0.11577499657869339,0.051339562982320786,0.0,1791183677651,-0.54300004,8.74695,4.44495,-0.242856,8.887956,4.121319,-0.255356,-0.140408,0.22587,-0.120037496,0.115775,-0.034649998,
36475013310197,0.07036031782627106,-0.12971207946538926,9.901675967486423,0.1509611815214157,0.17305230331172433,0.03363420367240906,0.05204605311155319,0.060499999672174454,0.0397476963698864,0.0,1791183677663,-0.62205005,8.742001,4.6080003,-0.248835,8.882133,4.133501,-0.342751,-0.125008,0.414801,-0.0935,0.0605,-0.0122375,
36475023304349,0.1054823100566864,-0.12823240011930465,9.94092042733271,0.107611545920372,0.17492039838784615,0.002966231107711792,0.0018768468871712685,-0.005499999970197678,0.01983032189309597,0.0,1791183677673,-0.73200005,8.73495,4.689,-0.250676,8.877579,4.143161,-0.427102,-0.137213,0.517668,-0.0477125,-0.0055,0.0133375,
36475033298423,0.10230204463005066,-0.123114350810647,9.933440135570823,0.08680548071861266,0.18001898810976122,0.03323489874601364,-0.04920664429664612,-0.07466249912977219,-0.005715235602110624,0.0,1791183677681,-0.70095,8.71605,4.7130003,-0.247985,8.875126,4.148574,-0.494436,-0.168279,0.572111,0.0108624995,-0.0746625,0.0441375,
36475043292573,0.1100272685289383,-0.10646052546799183,9.932209231538636,0.10082840621471405,0.1853318316636835,0.07242942601442337,-0.08450301736593246,-0.1247124969959259,-0.02839607372879982,0.0,1791183677692,-0.62505,8.75895,4.6410003,-0.239911,8.875076,4.149152,-0.433078,-0.139499,0.533225,0.062975,-0.1247125,0.0708125,
36475053286510,0.1285773515701294,-0.08080746121704578,9.940441493170637,0.11067660599946975,0.18051896724504934,0.10334985852241516,-0.10499455034732819,-0.15344999730587006,-0.042591873556375504,0.0,1791183677702,-0.50295,8.821051,4.5550504,-0.227982,8.877066,4.145568,-0.325297,-0.076846,0.450617,0.095975,-0.15345,0.0856625,
36475063280587,0.12624625861644745,-0.04998895637691021,9.92659608592871,0.1257347956299782,0.1593859611657241,0.11452704668045044,-0.10387374460697174,-0.1545500010251999,-0.04613494500517845,0.0,1791183677711,-0.43500003,8.82405,4.5259504,-0.214238,8.880043,4.139918,-0.272003,-0.048698,0.38923,0.104499996,-0.15455,0.091025,
36475073274750,0.12375739216804504,-0.020146825537085532,9.967061943300608,0.14295523166656493,0.1306606249597669,0.11818206310272217,-0.0740412026643753,-0.12044999748468399,-0.04049558565020561,0.0,1791183677722,-0.34905002,8.845051,4.5810003,-0.200941,8.882657,4.134979,-0.179955,-0.063283,0.420506,0.0917125,-0.12045,0.087725,
36475083268640,0.15342193841934204,0.006572498753666878,9.956416748714691,0.1767408862709999,0.10656036315172887,0.12840604186058044,-0.026971112936735153,-0.06517499685287476,-0.029422126710414886,0.0,1791183677732,-0.33705002,8.830951,4.5859504,-0.189931,8.884185,4.132214,-0.150263,-0.040869,0.444818,0.0661375,-0.065175,0.0792,
36475093262795,0.14654305577278137,0.026558299735188483,9.96187673905338,0.1842366248369217,0.0925304346061826,0.13570919930934905,0.02904054895043373,8.249999955296516E-4,-0.01571616344153881,0.0,1791183677741,-0.423,8.802,4.6459503,-0.182764,8.884311,4.132268,-0.200527,-0.064937,0.478283,0.0342375,8.25E-4,0.0686125,
36475103256884,0.09417642652988434,0.03881311677396297,9.89430052465731,0.1624632179737091,0.0840558476218386,0.12882901430130006,0.10448409616947174,0.08277499675750732,-4.675762611441314E-4,0.0,1791183677751,-0.49305,8.649,4.7800503,-0.179946,8.882524,4.136228,-0.287141,-0.168496,0.572485,-0.001925,0.082775,0.0697125,
36475113251032,0.05710333585739136,0.04714163132011891,9.906822240717633,0.11796666085720063,0.0768986279809141,0.11500042974948883,0.19366642832756042,0.17118750512599945,0.01084993127733469,0.0,1791183677764,-0.57405,8.58705,4.90695,-0.180014,8.87874,4.144341,-0.356505,-0.27245,0.703236,-0.0295625,0.1711875,0.089925,
36475123244955,0.11636777222156525,0.054382647201418874,9.956678127254353,0.08028760701417924,0.07625520064773277,0.11352250576019288,0.2957245409488678,0.2690874934196472,0.017987404018640518,0.0,1791183677771,-0.53595,8.63895,4.92105,-0.181949,8.873748,4.154935,-0.373724,-0.248304,0.78841,-0.0477125,0.2690875,0.120725,
36475133239097,0.12587375938892365,0.06122016049921512,9.961405698651028,0.03558344393968582,0.07622804691378526,0.10801286995410919,0.3829854428768158,0.3562625050544739,0.021731777116656303,0.0,1791183677782,-0.41205,8.709001,4.8180003,-0.184947,8.868569,4.165849,-0.279746,-0.207213,0.724824,-0.0573375,0.3562625,0.139975,
36475143233184,0.17904391884803772,0.06857920587062835,10.03839164739379,0.011163184046745309,0.08004741956478165,0.11451304256916046,0.4237731993198395,0.40424999594688416,0.025014154613018036,0.0,1791183677792,-0.35895002,8.874001,4.6789503,-0.189512,8.86375,4.175888,-0.198567,-0.073106,0.566345,-0.0647625,0.40425,0.1335125,
36475153227331,0.2546834945678711,0.0825664758682251,10.082648026079392,0.03208740949630737,0.08663286376842895,0.1466144561767578,0.41233423352241516,0.4031499922275543,0.025883495807647705,0.0,1791183677802,-0.38805002,8.938951,4.6480503,-0.195945,8.859566,4.18446,-0.187345,0.062758,0.454821,-0.065725,0.40315,0.109037496,
36475163221256,0.28518247604370117,0.0970308892428875,10.093524402559245,0.07404822111129761,0.0947264055620254,0.19223028421401978,0.34987181425094604,0.3499374985694885,0.02153267338871956,0.0,1791183677811,-0.53400004,8.91495,4.70295,-0.204015,8.85575,4.192144,-0.248707,0.085727,0.473474,-0.0540375,0.3499375,0.0760375,
36475173215318,0.2971436083316803,0.1142809472978115,10.113762620747458,0.09997940957546234,0.09812313383427398,0.22838545143604277,0.26127976179122925,0.2648249864578247,0.00750319380313158,0.0,1791183677821,-0.771,8.84805,4.83795,-0.212946,8.852715,4.198112,-0.44089,0.043272,0.580034,-0.020075,0.264825,0.0504625,
36475183209470,0.24979138374328613,0.13070569671690463,10.056296513274129,0.11745977699756621,0.09172992453369061,0.25316897630691526,0.17414866387844086,0.17215000092983246,-0.014812543988227844,0.0,1791183677833,-0.90000004,8.72595,4.9170003,-0.220887,8.851098,4.201105,-0.607725,-0.055666,0.66802,0.032175,0.17215,0.0452375,
36475193203400,0.1568230539560318,0.14284411780536174,9.949987394814496,0.11989578902721404,0.07716384786798962,0.2487248033285141,0.10998097062110901,0.09556250274181366,-0.040217939764261246,0.0,1791183677841,-0.924,8.62005,4.8829503,-0.225452,8.85142,4.200181,-0.701322,-0.190064,0.728799,0.0906125,0.0955625,0.0600875,
36475203197568,0.04462876915931702,0.1463767968118191,9.838823507922335,0.09171342849731444,0.07069834918179319,0.20671385824680327,0.0940474271774292,0.06366249918937683,-0.0637001320719719,0.0,1791183677852,-0.82095003,8.60295,4.70295,-0.225669,8.854173,4.194363,-0.669981,-0.264642,0.626878,0.143825,0.0636625,0.0930875,
36475213191650,-0.0577717125415802,0.13997019529342652,9.714116267573479,0.024600514769554133,0.08217126914991651,0.138123020529747,0.10873360931873322,0.06366249918937683,-0.078404501080513,0.0,1791183677864,-0.66105,8.653951,4.36305,-0.221369,8.859409,4.183528,-0.537811,-0.250725,0.367168,0.176825,0.0636625,0.12925,
36475223185793,-0.12332852184772491,0.12852965369820596,9.597774571733181,0.053984275460243224,0.10014025910052222,0.05402859449386597,0.13616593182086945,0.08277499675750732,-0.08352870494127274,0.0,1791183677872,-0.51405,8.71395,3.9900002,-0.213627,8.866859,4.168113,-0.368382,-0.152831,0.01627,0.1885125,0.082775,0.153725,
36475233179718,-0.23012466728687286,0.11190831810235977,9.508814993120447,0.1564676582813263,0.12707892988187217,0.041954615712165834,0.1506483256816864,0.09556250274181366,-0.07914848625659943,0.0,1791183677882,-0.44700003,8.776051,3.6330001,-0.204319,8.875644,4.149844,-0.260375,-0.099366,-0.343744,0.179025,0.0955625,0.1601875,
36475243173867,-0.3730042278766632,0.08775674328207969,9.395624663762554,0.29453452825546267,0.16529545607378388,0.14792007207870483,0.16032648086547852,0.10724999755620956,-0.06733821332454681,0.0,1791183677892,-0.36795002,8.78295,3.31695,-0.195175,8.88483,4.130581,-0.224028,-0.108551,-0.662064,0.15235,0.10725,0.1568875,
36475253167944,-0.4986642301082611,0.05639466419816017,9.277709085144421,0.4488089561462402,0.2084470426576679,0.25657867193222045,0.16448652744293213,0.11467500030994415,-0.05337810888886452,0.0,1791183677902,-0.38805002,8.75205,3.0540001,-0.186448,8.893832,4.111569,-0.194448,-0.122343,-0.93275,0.12045,0.114675,0.1494625,
36475263162105,-0.6479434967041016,0.017685176432132722,9.149439797033985,0.6029984802007675,0.2578999711761123,0.37461302876472474,0.16858047246932983,0.1200374960899353,-0.03873927891254425,0.0,1791183677911,-0.31605002,8.674951,2.8909502,-0.178704,8.902178,4.09381,-0.214163,-0.197726,-1.130469,0.08635,0.120037496,0.1463,
36475273156059,-0.6850916743278503,-0.02275727689266205,9.148423299076125,0.740134635567665,0.2983437655664368,0.4869656592607498,0.15926089882850647,0.11261250078678131,-0.02421226166188717,0.0,1791183677921,-0.16995001,8.710951,2.7900002,-0.170213,8.909551,4.078108,-0.069425,-0.193127,-1.227295,0.0523875,0.1126125,0.138875,
36475283150203,-0.6867586970329285,-0.06476630866527558,9.180459812397862,0.827017268538475,0.3282334263963764,0.5782924652099609,0.1604141741991043,0.12113749980926514,-0.01004956103861332,0.0,1791183677933,0.0,8.806951,2.592,-0.161629,8.916049,4.06423,0.046488,-0.139771,-1.347492,0.0193875,0.1211375,0.121825,
36475293144256,-0.7420138120651245,-0.10919415205717087,9.17269309943524,0.8588082402944566,0.3556177380327875,0.6520943820476532,0.16388916969299316,0.1391499936580658,0.01128151174634695,0.0,1791183677941,0.16005,8.85495,2.388,-0.154169,8.92162,4.052275,0.268872,-0.095064,-1.574957,-0.0306625,0.13915,0.088825,
36475303138423,-0.7212937474250793,-0.14996766075491905,9.253287085680315,0.8347433060407639,0.37612074219958563,0.6966202855110168,0.12891198694705963,0.12430000305175781,0.0389079786837101,0.0,1791183677951,0.040050004,8.938951,2.391,-0.150074,8.925335,4.044239,0.293508,-0.017375,-1.698602,-0.0955625,0.1243,0.0345125,
36475313132346,-0.6257189512252808,-0.18410877510905266,9.344472289810682,0.7462039709091187,0.38661898771365993,0.6921753764152527,0.04556557163596153,0.052937500178813934,0.06461943686008453,0.0,1791183677963,-0.30405003,8.941051,2.69895,-0.150349,8.926142,4.04245,0.013661,0.01773,-1.555555,-0.15619999,0.0529375,-0.0122375,
36475323126492,-0.48917436599731445,-0.21438588201999664,9.442006243730948,0.6110372990369797,0.3856118273863654,0.6529919147491455,-0.07612945139408112,-0.07150000333786011,0.0760597512125969,0.0,1791183677973,-0.522,8.802,3.3769503,-0.151903,8.923573,4.048062,-0.274483,-0.068285,-1.04402,-0.18287499,-0.0715,-0.03355,
36475333120572,-0.3068028688430786,-0.23601971343159675,9.584680364052517,0.42908067703247066,0.3779770794013747,0.5770007491111755,-0.1781023144721985,-0.18645000457763672,0.06510055810213089,0.0,1791183677981,-0.62205005,8.674951,4.0279503,-0.150459,8.918512,4.05925,-0.441127,-0.190118,-0.339341,-0.15619999,-0.18645,-0.026124999,
36475343114726,-0.129358172416687,-0.251439817994833,9.803200170527942,0.1978909492492676,0.36685669709380736,0.45446962118148804,-0.22632943093776703,-0.2545124888420105,0.03910582512617111,0.0,1791183677992,-0.59805006,8.710951,4.45695,-0.143801,8.913336,4.070844,-0.490881,-0.230431,0.175789,-0.0944625,-0.2545125,0.009075,
36475353108649,0.09147074818611145,-0.25960045531392095,9.98166180137912,0.08269630670547484,0.3571954404035393,0.2919167220592499,-0.24238814413547516,-0.28971248865127563,0.01164363231509924,0.0,1791183678002,-0.46695003,8.802,4.68405,-0.131157,8.909579,4.079489,-0.422122,-0.147666,0.528667,-0.0295625,-0.2897125,0.0495,
36475363102795,0.24302414059638977,-0.26170837208628656,10.147649036060288,0.36879755556583405,0.3540851471577552,0.11816810369491577,-0.21722839772701263,-0.2737624943256378,-0.004498150199651718,0.0,1791183678012,-0.282,8.934,4.8040504,-0.114348,8.907241,4.085096,-0.271337,-0.04956,0.683473,0.0086624995,-0.2737625,0.0760375,
36475373096894,0.3864706754684448,-0.2572420187294483,10.279895580181021,0.635253369808197,0.3615900582275663,0.056960904598236085,-0.1639418751001358,-0.21518750488758087,-0.006147733889520168,0.0,1791183678021,-0.10005,9.06495,4.84695,-0.097196,8.905406,4.089536,-0.084982,0.083955,0.741282,0.012925,-0.2151875,0.0760375,
36475383091039,0.49324673414230347,-0.24506925120949746,10.339019060054254,0.8690652072429658,0.381977379942996,0.2169708251953125,-0.08842684328556061,-0.12264999747276306,0.005681904964148998,0.0,1791183678032,0.028050002,9.12495,4.86105,-0.083529,8.902842,4.095415,0.045003,0.191864,0.764133,-0.014712499,-0.12265,0.054725,
36475393084967,0.5499001145362854,-0.22541539818048478,10.378841421805973,1.0494427680969238,0.41114886382596194,0.352822482585907,-0.002084932290017605,-0.012924999929964542,0.026497796177864075,0.0,1791183678041,0.081,9.148951,4.90005,-0.075924,8.898469,4.105059,0.152319,0.248909,0.776037,-0.0636625,-0.012925,0.0218625,
36475403079142,0.5573850870132446,-0.19977758228778839,10.38489988518653,1.1381807267665862,0.44201666030467246,0.4460053503513336,0.08341857045888901,0.0966624990105629,0.04655967280268669,0.0,1791183678052,0.028050002,9.13305,4.9429502,-0.075836,8.892018,4.119012,0.133078,0.245783,0.797997,-0.11055,0.0966625,-0.0122375,
36475413073231,0.5730170607566833,-0.1682381436228752,10.36732418779453,1.1649958491325378,0.4724788740879228,0.5120039343833923,0.15125036239624023,0.18603749573230743,0.061836134642362595,0.0,1791183678062,-0.064050004,9.109051,4.9500003,-0.083112,8.883833,4.136498,0.094864,0.253969,0.81403,-0.1456125,0.1860375,-0.0441375,
36475423067390,0.5459069609642029,-0.13477636948227883,10.321922038939046,1.1208919405937194,0.49750971241237085,0.543891191482544,0.19333045184612274,0.2424124926328659,0.067813441157341,0.0,1791183678071,-0.26505002,9.04605,4.96395,-0.096454,8.874743,4.155674,-0.06657,0.217569,0.82119,-0.1584,0.2424125,-0.06545,
36475433061313,0.477596640586853,-0.09939030408859253,10.251641915707653,0.9952307939529419,0.5143531963533797,0.5407611727714539,0.20808669924736023,0.25946250557899475,0.06367114186286926,0.0,1791183678081,-0.45000002,8.97,4.9429502,-0.113178,8.865783,4.174337,-0.243776,0.157097,0.780979,-0.147675,0.2594625,-0.06655,
36475443055440,0.37786030769348145,-0.0618470773100853,10.146288359234092,0.7982699334621429,0.5203795682766369,0.506353211402893,0.18034304678440094,0.2232999950647354,0.04886015132069588,0.0,1791183678092,-0.62505,8.87205,4.8829503,-0.129738,8.858131,4.190072,-0.397204,0.078557,0.705389,-0.1126125,0.2233,-0.0537625,
36475453049491,0.28078776597976685,-0.022874477505683898,10.06712829542486,0.5692018508911133,0.5153692871011455,0.4510337471961975,0.12501583993434906,0.14877499639987946,0.026286594569683075,0.0,1791183678101,-0.69405,8.812051,4.8180003,-0.142865,8.852516,4.201498,-0.55646,-0.011594,0.660445,-0.0605,0.148775,-0.023924999,
36475463043414,0.189452663064003,0.01899533048272133,9.96270316259444,0.3173599630594253,0.496559158670141,0.3743208676576614,0.07046982645988464,0.07218749821186066,6.389276823028922E-4,0.0,1791183678111,-0.70095,8.75205,4.7080503,-0.150193,8.849531,4.207521,-0.611381,-0.068465,0.563442,-0.001925,0.0721875,0.0122375,
36475473037579,0.09249646961688995,0.05787473767995834,9.8464325107212,0.06666794419288638,0.46961961746794034,0.2836387693881989,0.029559729620814323,0.01251249946653843,-0.019930893555283546,0.0,1791183678121,-0.60495,8.721001,4.53105,-0.151396,8.849104,4.208377,-0.512016,-0.113527,0.435693,0.044825,0.0125124995,0.0441375,
36475483031640,0.003991328179836273,0.09241223894059658,9.739442058076616,0.1639047756791115,0.4379166240321991,0.1889177069067955,0.006515868008136749,-0.023649999871850014,-0.03216765075922012,0.0,1791183678132,-0.49305,8.685,4.38,-0.14755,8.850784,4.20498,-0.400941,-0.117602,0.242766,0.0726,-0.02365,0.0675125,
36475493025806,-0.1217489093542099,0.12342548407614232,9.674253007143093,0.35700948685407635,0.3978555722520653,0.08899586349725723,9.465478360652924E-4,-0.0364375002682209,-0.0318107008934021,0.0,1791183678141,-0.32295,8.67,4.27995,-0.140383,8.853148,4.200248,-0.274032,-0.191791,0.111028,0.0715,-0.0364375,0.0814,
36475503019731,-0.12601026892662048,0.15318965800106527,9.638932986958809,0.5043676778674125,0.35332213497456866,0.007636256515979767,0.020872687920928,-0.01718750037252903,-0.024948446080088615,0.0,1791183678151,-0.21000001,8.665951,4.215,-0.13147,8.855295,4.196005,-0.127322,-0.167602,0.055416,0.05555,-0.0171875,0.0867625,
36475513013886,-0.17354178428649902,0.17579851634800434,9.590670991959774,0.6088538244366646,0.31516362620051025,0.06496263295412064,0.054902613162994385,0.02213750034570694,-0.01480392087250948,0.0,1791183678161,-0.13395001,8.661,4.11705,-0.123161,8.856724,4.193245,-0.025497,-0.188184,-0.008861,0.032175,0.0221375,0.082499996,
36475523007953,-0.24038273096084595,0.18823809809982778,9.526443643852915,0.6722996458411217,0.2927870606832551,0.13153847306966782,0.08617325127124786,0.06146249920129776,-0.0036793772596865892,0.0,1791183678171,-0.06705,8.635051,4.0230002,-0.116922,8.857495,4.191791,-0.003006,-0.208109,-0.122329,0.0066,0.0614625,0.071775,
36475533002110,-0.2705467641353607,0.19005090333521366,9.53698601836811,0.6927993029356002,0.28981351967073293,0.18644609153270722,0.09742912650108337,0.07961250096559525,0.008324824273586273,0.0,1791183678181,-0.03795,8.63895,4.0399504,-0.112105,8.857304,4.192326,0.071184,-0.219889,-0.165959,-0.0210375,0.0796125,0.0589875,
36475542996035,-0.2625790536403656,0.18338985927402973,9.532698059939962,0.6656458675861359,0.2984796353018156,0.21461212038993835,0.1041649878025055,0.09129999577999115,0.017579426988959312,0.0,1791183678191,-0.076050006,8.61795,4.0740004,-0.108715,8.856065,4.195037,0.058218,-0.225832,-0.135151,-0.04235,0.091299996,0.0495,
36475552990179,-0.2400311678647995,0.1668147634714842,9.582441311920087,0.6117371678352356,0.312021106739667,0.23741630017757415,0.10280730575323105,0.09019999951124191,0.022219611331820488,0.0,1791183678201,-0.10005,8.62695,4.17,-0.106026,8.854023,4.199414,0.026799,-0.230974,-0.07249,-0.053075,0.0902,0.0484,
36475562984265,-0.18096241354942322,0.14561543576419353,9.634449578442826,0.5225391954183578,0.3204135052405701,0.23890042603015899,0.08363300561904907,0.06902500241994858,0.020847763866186142,0.0,1791183678211,-0.10305001,8.629951,4.28205,-0.102839,8.851583,4.204631,0.028399,-0.216562,0.03482,-0.049775,0.069025,0.0484,
36475572978413,-0.11657504737377167,0.12046314962208271,9.667701486295211,0.4030565962195396,0.32026365230873544,0.21413888931274414,0.06520350277423859,0.04977500066161156,0.014533295296132565,0.0,1791183678221,-0.117000006,8.649,4.3180504,-0.099103,8.849286,4.209548,-0.00646,-0.185535,0.118487,-0.034925,0.049775,0.0463375,
36475582972314,-0.11387021839618683,0.09010730199515819,9.682441178851676,0.2717994436621666,0.31216110556719523,0.18280358016490936,0.05073133111000061,0.03698749840259552,0.008241391740739346,0.0,1791183678232,-0.141,8.682,4.2840004,-0.095584,8.847659,4.213054,-0.048286,-0.17912,0.110193,-0.020075,0.0369875,0.039875,
36475592966382,-0.12535226345062256,0.056344683095812795,9.665202913124247,0.16299447864294053,0.29674115165893555,0.15535822212696077,0.04227510094642639,0.0317624993622303,0.005085758864879608,0.0,1791183678241,-0.141,8.698951,4.21005,-0.092554,8.846693,4.215145,-0.044133,-0.156606,0.036276,-0.0125124995,0.0317625,0.03135,
36475602960505,-0.16906964778900146,0.020021946355700492,9.611495991103345,0.07620328515768052,0.27699183488706874,0.14116591811180115,0.03733435273170471,0.03382499888539314,0.008021985180675983,0.0,1791183678251,-0.19095,8.673,4.13805,-0.090893,8.845886,4.216875,-0.072131,-0.172558,-0.032491,-0.018975,0.033825,0.0154,
36475612954688,-0.2170281857252121,-0.01948031596839428,9.536853887495182,0.016840599477291107,0.25036674358587374,0.14837907254695892,0.04991941154003143,0.05623750016093254,0.013225375674664974,0.0,1791183678263,-0.26295,8.61795,4.07595,-0.092051,8.844813,4.219102,-0.138011,-0.200216,-0.08739,-0.0306625,0.0562375,-0.0026125,
36475622948611,-0.297793447971344,-0.06166533641517162,9.42072858263933,0.0018233388662338423,0.22089296428383892,0.18462275266647338,0.07914892584085464,0.09350000321865082,0.022999795153737068,0.0,1791183678272,-0.40905002,8.541,3.9540002,-0.096848,8.843167,4.222446,-0.243347,-0.234483,-0.205656,-0.053075,0.0935,-0.0133375,
36475632942767,-0.4293190836906433,-0.10701112262904644,9.324266797871694,0.033100405335426325,0.1973721136458368,0.24771252572536467,0.10981255769729614,0.12966249883174896,0.03685857355594635,0.0,1791183678283,-0.49995002,8.47395,3.8580003,-0.105109,8.840561,4.227696,-0.32846,-0.322856,-0.328222,-0.084975,0.1296625,-0.0187,
36475642936855,-0.5213126540184021,-0.15196977071464063,9.28385100815126,0.08948830366134647,0.1837436909277931,0.3269046038389206,0.12494960427284241,0.1434125006198883,0.05155840888619423,0.0,1791183678291,-0.60495,8.42895,3.8440502,-0.115088,8.836791,4.235312,-0.442979,-0.388519,-0.407664,-0.1189375,0.1434125,-0.0133375,
36475652931009,-0.4986101984977722,-0.19093966893851758,9.316143722700094,0.15391228795051576,0.16996210171265266,0.39281271398067474,0.1255791038274765,0.13708749413490295,0.06122588738799095,0.0,1791183678301,-0.60105,8.4529505,3.8700001,-0.124554,8.831841,4.245365,-0.464637,-0.373991,-0.386592,-0.14135,0.1370875,5.5E-4,
36475662924932,-0.46854811906814575,-0.223839708045125,9.38395090559715,0.22897781133651732,0.15627894839746878,0.44311670064926145,0.11120489239692688,0.11371249705553055,0.06764406710863113,0.0,1791183678313,-0.66795003,8.484,3.9540002,-0.13194,8.826127,4.257002,-0.502742,-0.361095,-0.345556,-0.15619999,0.1137125,0.0154,
36475672919087,-0.360673189163208,-0.2464981909841299,9.513300535356699,0.2728890687227249,0.14086321051280737,0.4556926488876343,0.0711982250213623,0.060499999672174454,0.06620470434427261,0.0,1791183678321,-0.72795004,8.541,4.12605,-0.136502,8.820044,4.269448,-0.55564,-0.295156,-0.235898,-0.1530375,0.0605,0.03355,
36475682913162,-0.24250683188438416,-0.2588230989873409,9.638370549191338,0.26297197639942166,0.12866268808598424,0.4183301985263824,0.01948579028248787,-0.008662499487400055,0.059573132544755936,0.0,1791183678331,-0.66300005,8.601001,4.2990003,-0.136365,8.813923,4.282075,-0.56296,-0.248334,-0.061778,-0.1381875,-0.0086624995,0.058025,
36475692907316,-0.1463966816663742,-0.26005548760294916,9.738655701047547,0.2021810859441757,0.1274562152906394,0.34334700405597685,-0.02523055300116539,-0.06943749636411667,0.048736389726400375,0.0,1791183678341,-0.59595,8.641951,4.4500504,-0.130663,8.80833,4.293746,-0.494441,-0.204434,0.070202,-0.1137125,-0.0694375,0.0814,
36475702901263,0.015154600143432617,-0.25299724414944647,9.881255504259721,0.09221497178077698,0.13814445918289386,0.2405940443277359,-0.056193068623542786,-0.11192499846220016,0.03840641677379608,0.0,1791183678351,-0.462,8.733001,4.6000504,-0.120482,8.803343,4.304261,-0.428009,-0.101284,0.229676,-0.0902,-0.111925,0.09845,
36475712895347,0.14330685138702393,-0.23715481236577035,10.007383971872265,0.06639970242977142,0.1623887226994571,0.11822305023670196,-0.06973374634981155,-0.1289750039577484,0.03301454335451126,0.0,1791183678363,-0.31800002,8.81595,4.7250004,-0.107223,8.798714,4.314064,-0.297615,-0.012859,0.344371,-0.07755,-0.128975,0.1027125,
36475722889513,0.2365705668926239,-0.21330714747309684,10.077531822585428,0.2489382266998291,0.19241011385548465,0.0012257009744644164,-0.05640186369419098,-0.11096250265836716,0.03184359520673752,0.0,1791183678371,-0.19395001,8.86695,4.7850003,-0.093198,8.794124,4.323738,-0.148834,0.051586,0.428071,-0.07425,-0.1109625,0.09625,
36475732883438,0.31191036105155945,-0.18418429121375085,10.123271443335046,0.43901374340057375,0.22316443272716704,0.11210913956165314,-0.020195789635181427,-0.06187500059604645,0.03644304722547531,0.0,1791183678381,-0.093,8.92695,4.7730002,-0.081446,8.789189,4.333997,-0.052847,0.123558,0.453725,-0.083875,-0.061875,0.0782375,
36475742877578,0.30454927682876587,-0.15582787469029427,10.084180365044086,0.5951110452413559,0.24623975260743075,0.20229833126068114,0.016753539443016052,-0.007699999958276749,0.04625455290079117,0.0,1791183678391,-0.10695001,8.88405,4.7700005,-0.073698,8.783566,4.345524,-0.012711,0.131575,0.420651,-0.1051875,-0.0077,0.0515625,
36475752871669,0.28828877210617065,-0.12941187769174575,10.081846584896184,0.7000418663024902,0.26352168968750295,0.25692516565322876,0.048007670789957047,0.03492499887943268,0.05503189191222191,0.0,1791183678401,-0.177,8.85,4.82595,-0.070064,8.776979,4.358872,-0.088172,0.104642,0.436033,-0.1243,0.034925,0.0356125,
36475762865835,0.2365366816520691,-0.10853692293167114,10.030578617185599,0.7312637805938721,0.27490173101756094,0.2755711317062378,0.07519160211086273,0.06792499870061874,0.057159293442964554,0.0,1791183678411,-0.21495001,8.78295,4.84005,-0.069202,8.769757,4.373394,-0.122552,0.032856,0.462213,-0.1285625,0.067925,0.03025,
36475772859770,0.19278471171855927,-0.0930689349770546,9.999007532512524,0.6851441591978074,0.2826096404376083,0.2668139606714249,0.08932306617498398,0.07741250097751617,0.052946899086236954,0.0,1791183678421,-0.28905,8.742001,4.8450003,-0.068905,8.762682,4.387557,-0.204252,-0.01274,0.452838,-0.1189375,0.0774125,0.0430375,
36475782853943,0.2239203155040741,-0.07617940828204155,10.031585850906154,0.5925629556179046,0.29083573943504254,0.2492159515619278,0.08839385211467743,0.06476250290870667,0.04195299372076988,0.0,1791183678431,-0.35595003,8.78505,4.8300004,-0.067289,8.756547,4.399814,-0.296847,0.01973,0.454946,-0.0944625,0.0647625,0.06655,
36475792848020,0.24323153495788574,-0.05775021836161613,10.051259254659806,0.4775464475154877,0.2987073171859108,0.23695240318775176,0.08432561904191971,0.045512501150369644,0.026105636730790138,0.0,1791183678441,-0.29205,8.85,4.75605,-0.06274,8.752134,4.408653,-0.296608,0.069633,0.398222,-0.0594,0.0455125,0.09625,
36475802842172,0.22807911038398743,-0.03789278045296669,10.023167193336548,0.34313352108001705,0.3038043169381644,0.2249104708433151,0.07764340192079544,0.027499999850988388,0.011236804537475109,0.0,1791183678451,-0.15105,8.90505,4.59795,-0.05438,8.749798,4.413399,-0.182864,0.119853,0.266584,-0.0264,0.0275,0.1175625,
36475812836336,0.22862230241298676,-0.015610256046056748,10.027995706101859,0.22210189402103422,0.30618228540359715,0.22332759499549865,0.057055480778217316,8.249999955296516E-4,0.001315993256866932,0.0,1791183678462,0.009000001,8.989051,4.44495,-0.042507,8.749336,4.414443,-0.022355,0.201718,0.107522,-0.004125,8.25E-4,0.1249875,
36475822830254,0.241547629237175,0.011356797814369202,10.082066435658517,0.12097103893756866,0.30388404220848564,0.2330801784992218,0.016649577766656876,-0.03959999978542328,-0.0013818733859807253,0.0,1791183678472,0.162,9.063001,4.41405,-0.027934,8.749995,4.413255,0.140242,0.270491,9.72E-4,0.0023375,-0.0396,0.1155,
36475832824425,0.2962239682674408,0.047633950412273404,10.118981412454218,0.04524257779121399,0.29219374209836024,0.24754090905189513,-0.03142287954688072,-0.0789249986410141,-0.0016596338246017694,0.0,1791183678481,0.23205002,9.08895,4.4419503,-0.012673,8.750866,4.411599,0.199202,0.327081,0.00981,0.0034375,-0.078925,0.0867625,
36475842818500,0.3202272057533264,0.08971094340085983,10.109424406488618,0.006014877557754539,0.26671530100594776,0.2629400432109833,-0.0644116997718811,-0.09707500040531158,-5.6738692364888266E-5,0.0,1791183678491,0.22200002,9.04395,4.512,0.001018,8.751476,4.410401,0.25973,0.326471,0.063681,1.375E-4,-0.097075,0.0495,
36475852812638,0.25749117136001587,0.12751601189374923,10.034535113095478,0.006748676300048828,0.2319682101741468,0.268822455406189,-0.0759018063545227,-0.09171249717473984,0.0013759707799181342,0.0,1791183678501,0.09,8.931001,4.5739503,0.010762,8.751554,4.41024,0.151824,0.22823,0.118908,-0.003025,-0.0917125,0.0133375,
36475862806562,0.18277771770954132,0.1600823037326336,9.904250985333583,0.007160422205924999,0.18744801296033342,0.2596535384654999,-0.07133568823337555,-0.07259999960660934,0.002266949974000454,0.0,1791183678514,-0.112050004,8.75895,4.62195,0.015707,8.750973,4.411377,-0.015926,0.104313,0.199174,-0.0050875,-0.0726,-0.0144375,
36475872800688,0.07146582007408142,0.18168925419449805,9.80008220153584,0.023578774929046642,0.14663978704381916,0.22563717663288116,-0.04093082994222641,-0.03423750028014183,0.0055980258621275425,0.0,1791183678521,-0.24900001,8.637,4.62405,0.016013,8.749722,4.413854,-0.205374,-0.033298,0.225427,-0.0125124995,-0.0342375,-0.0229625,
36475882794753,-0.07630649209022522,0.189999271184206,9.683675900585948,0.0858213186264038,0.12555932878406859,0.15113108456134797,0.007052596192806959,0.01251249946653843,0.008540071547031403,0.0,1791183678534,-0.35895002,8.53905,4.5529504,0.013616,8.748041,4.417195,-0.334658,-0.168087,0.164626,-0.018975,0.0125124995,-0.009075,
36475892788676,-0.14583170413970947,0.19002752006053925,9.66138722071908,0.16699116826057434,0.1254836825700655,0.057919302582740785,0.05323114991188049,0.052937500178813934,0.012916825711727142,0.0,1791183678541,-0.43500003,8.532001,4.512,0.010292,8.745999,4.421246,-0.400766,-0.221112,0.115085,-0.0286,0.0529375,0.0133375,
36475902782842,-0.15441060066223145,0.18154926002025604,9.65052181283542,0.24778864681720733,0.1416937815938627,0.024461051821708678,0.08324816823005676,0.07315000146627426,0.014870533719658852,0.0,1791183678551,-0.45000002,8.553,4.44705,0.007524,8.743876,4.425446,-0.443487,-0.209412,0.072577,-0.0328625,0.07315,0.039875,
36475912776929,-0.15468360483646393,0.16664973720908166,9.68268004097266,0.32503349483013155,0.15948239665227276,0.09195331633090972,0.08956775814294815,0.06998749822378159,0.012965631671249866,0.0,1791183678561,-0.321,8.611051,4.4160004,0.006705,8.742239,4.428683,-0.404362,-0.174256,0.002303,-0.0286,0.0699875,0.0600875,
36475922771071,-0.08764205873012543,0.15043910592794418,9.732273207538462,0.37131580114364626,0.16781126311525543,0.1237748920917511,0.07263205945491791,0.047712501138448715,0.005717453081160784,0.0,1791183678571,-0.20805001,8.70405,4.3489504,0.00899,8.741474,4.430191,-0.267782,-0.075329,-0.044693,-0.0125124995,0.0477125,0.06655,
36475932764986,-0.01974562183022499,0.13385630678385496,9.783088583094862,0.37540276125073435,0.16742199547081804,0.11246271803975105,0.0378592275083065,0.0147124994546175,9.513154509477317E-6,0.0,1791183678581,-0.13395001,8.800051,4.2720003,0.012833,8.741814,4.429506,-0.204588,0.036858,-0.115834,1.375E-4,0.014712499,0.054725,
36475942759136,-0.03286347910761833,0.11698566898703575,9.787857438798437,0.3586915284395218,0.1663684946046169,0.08986907303333283,-0.0016775820404291153,-0.020487500354647636,-0.0038481757510453463,0.0,1791183678591,-0.13095,8.818951,4.2439504,0.017378,8.743004,4.427142,-0.158855,0.050033,-0.170932,0.0086624995,-0.0204875,0.0367125,
36475952753193,-0.039308324456214905,0.10060581415891648,9.75754486084507,0.3265021562576294,0.16481604689843118,0.06684861779212951,-0.03877706825733185,-0.05238749831914902,-0.0043685659766197205,0.0,1791183678601,-0.16695,8.77305,4.26795,0.021664,8.744381,4.424403,-0.160747,0.043868,-0.172981,0.0097624995,-0.0523875,0.0176,
36475962747345,-0.05334703251719475,0.08611162845045328,9.760195518177747,0.27221847996115683,0.16497109385885247,0.04658130332827568,-0.058310870081186295,-0.0672374963760376,-0.002968705026432872,0.0,1791183678612,-0.246,8.778001,4.26,0.024924,8.74554,4.422098,-0.223862,0.025949,-0.168282,0.0066,-0.0672375,0.0037125,
36475972741495,-0.08571837097406387,0.07218647431582212,9.717145797422955,0.19732765033841132,0.1671193345837888,0.04619656577706337,-0.06363528966903687,-0.07259999960660934,0.003294579451903701,0.0,1791183678621,-0.26295,8.73495,4.24905,0.027184,8.746238,4.420701,-0.307524,-0.003479,-0.18125,-0.0072875,-0.0726,0.0026125,
36475982735408,-0.03415529802441597,0.05928269363939762,9.842654678954217,0.10699780359864236,0.16485337465493127,0.04907850101590157,-0.09217245876789093,-0.10449999570846558,0.013345776125788689,0.0,1791183678632,-0.27495003,8.781,4.4380503,0.030444,8.74585,4.421449,-0.296419,0.018457,-0.110172,-0.0295625,-0.104499996,0.0026125,
36475992729578,0.11448422074317932,0.0528453279286623,9.990705736086927,0.0048520907759666415,0.15998655279877166,0.019608961045742036,-0.12023959308862686,-0.13750000298023224,0.021070867776870728,0.0,1791183678641,-0.25605002,8.78505,4.7509503,0.035324,8.743707,4.425648,-0.337212,0.042147,0.172932,-0.0466125,-0.1375,0.005775,
36476002723658,0.2425023764371872,0.05356649123132229,10.107731414767485,0.1287064954638481,0.16080523274039712,0.036753179132938386,-0.1296723335981369,-0.15138749778270721,0.02020181342959404,0.0,1791183678651,-0.19095,8.745001,5.06505,0.04192,8.740242,4.432431,-0.29353,0.033641,0.472607,-0.04455,-0.1513875,0.0122375,
36476012717578,0.34336021542549133,0.059303386881947515,10.215985429347914,0.2398695208132267,0.16879633936398,0.1160946287214756,-0.13090482354164124,-0.15565000474452972,0.01111665740609169,0.0,1791183678663,-0.12900001,8.72295,5.3160005,0.049994,8.736254,4.440199,-0.213019,0.004111,0.752143,-0.0243375,-0.15565,0.0176,
36476022711718,0.40214502811431885,0.06733325682580471,10.270231573135792,0.3261300265789032,0.18067677417401606,0.21366730853915214,-0.11582761257886887,-0.14492499828338623,-0.0013833441771566868,0.0,1791183678671,-0.045,8.721001,5.4240003,0.059104,8.732557,4.447355,-0.17185,-0.025711,0.938918,0.0034375,-0.144925,0.0292875,
36476032705797,0.4433209002017975,0.07468810342252255,10.269601582541128,0.3990316212177276,0.19245464522018133,0.3091625481843948,-0.0737694501876831,-0.10449999570846558,-0.012822910211980343,0.0,1791183678681,0.081,8.754001,5.3689504,0.068957,8.729862,4.452498,-0.028474,0.003319,0.969688,0.028875,-0.104499996,0.042075,
36476042699947,0.43254920840263367,0.08030420355498791,10.204386511322335,0.4396241635084152,0.20098757640793732,0.3727755457162857,-0.023761514574289322,-0.050187498331069946,-0.021016471087932587,0.0,1791183678691,0.23205002,8.79705,5.1660004,0.078069,8.728546,4.45493,0.089305,0.064491,0.823604,0.047025,-0.0501875,0.0452375,
36476052693889,0.32471904158592224,0.08366559706628322,10.1147528971864,0.43580018207430843,0.20445507202925065,0.3892188787460327,0.015024925582110882,-0.0012374999932944775,-0.022513484582304955,0.0,1791183678704,0.29895002,8.833051,4.91895,0.085542,8.728448,4.454982,0.194359,0.066983,0.579343,0.0501875,-0.0012375,0.0345125,
36476062688044,0.26580163836479187,0.08781679309904575,10.052911781624,0.4199037291109562,0.20724902968182515,0.3737071633338928,0.04749222472310066,0.043449997901916504,-0.017326561734080315,0.0,1791183678711,0.36795002,8.87205,4.7130003,0.090268,8.728944,4.45392,0.263854,0.114371,0.35535,0.0385,0.043449998,0.0185625,
36476072682121,0.18434026837348938,0.09346051551401616,9.980804764044839,0.37922471240162847,0.20826132634113914,0.3301462113857269,0.05901135504245758,0.06902500241994858,-0.010301084257662296,0.0,1791183678721,0.37005,8.87205,4.557,0.092096,8.7296,4.4526,0.283574,0.118503,0.167528,0.02255,0.069025,-0.0059125,
36476082676258,0.14439257979393005,0.10449546910822391,9.925788157741353,0.2899695083498955,0.20479177660147851,0.27036054730415343,0.05294492095708847,0.07535000145435333,-0.0032894709147512913,0.0,1791183678732,0.32205,8.874001,4.43505,0.091115,8.730135,4.45157,0.248642,0.14191,0.034482,0.0066,0.07535,-0.03135,
36476092670183,0.06610889732837677,0.11509249918162823,9.799169406983832,0.16031930595636368,0.1968955725214477,0.19707248508930206,0.044123001396656036,0.07644999772310257,0.002839508932083845,0.0,1791183678742,0.26700002,8.79,4.3230004,0.087528,8.730463,4.450996,0.20195,0.110458,-0.075075,-0.0072875,0.07645,-0.0526625,
36476102664347,-0.03667377680540085,0.12097934037446975,9.729288829793308,0.008699292689561836,0.19040290350831054,0.12479392141103744,0.02726496011018753,0.06902500241994858,0.006555343512445688,0.0,1791183678751,0.124050006,8.733001,4.287,0.081727,8.730627,4.450784,0.133531,0.038468,-0.158661,-0.0158125,0.069025,-0.075075,
36476112658434,-0.10446038097143173,0.12349050156772137,9.647520456984191,0.16292579099535942,0.1870524262439921,0.050741517543792726,0.010000031441450119,0.05719999969005585,0.006508002057671547,0.0,1791183678765,-0.10305001,8.653951,4.263,0.073388,8.730708,4.450773,-0.042482,-0.026256,-0.177803,-0.0158125,0.0572,-0.089925,
36476122652586,-0.18888813257217407,0.11842819787561894,9.549771620928055,0.33306671082973477,0.19394111451044146,0.023904162645339965,-0.0036423243582248688,0.04124999791383743,0.003235154552385211,0.0,1791183678771,-0.25800002,8.55105,4.2439504,0.063315,8.730931,4.450488,-0.231129,-0.119853,-0.177518,-0.0083875,0.041249998,-0.088825,
36476132646749,-0.32544562220573425,0.10314319785684348,9.424246240323415,0.4906473487615585,0.2151188575115016,0.11787180304527282,-0.009540656581521034,0.026399999856948853,-0.00239506340585649,0.0,1791183678781,-0.402,8.44095,4.1719503,0.05344,8.731571,4.449359,-0.388847,-0.247385,-0.226668,0.0044,0.0264,-0.072875,
36476142640672,-0.38386213779449463,0.08559326492249966,9.458940914934304,0.5970848888158798,0.23854127892201718,0.20786601006984712,-0.026382455602288246,-0.007699999958276749,-0.007064802572131157,0.0,1791183678792,-0.49095002,8.47395,4.1740503,0.045743,8.732842,4.446949,-0.515226,-0.282176,-0.286507,0.015125,-0.0077,-0.043175,
36476152634746,-0.34935519099235535,0.07009092159569263,9.49891590798259,0.6441094562411308,0.2556180876127485,0.270402292907238,-0.048802874982357025,-0.04922499880194664,-0.012704171240329742,0.0,1791183678802,-0.43305,8.505,4.20795,0.042381,8.734621,4.443487,-0.514258,-0.255224,-0.263892,0.0279125,-0.049225,-0.0111375,
36476162628908,-0.25038063526153564,0.06023924145847559,9.582662888096493,0.6297325551509857,0.26384996802201577,0.2995863437652588,-0.06903057545423508,-0.08112499862909317,-0.018405171111226082,0.0,1791183678810,-0.33705002,8.59095,4.2319503,0.043291,8.736888,4.439026,-0.417006,-0.171299,-0.211546,0.0407,-0.081125,0.006875,
36476172623052,-0.19780132174491882,0.05463509391993284,9.598858133016329,0.5717295289039612,0.26804750425465795,0.30136898159980774,-0.07365623861551285,-0.08744999766349792,-0.021729588508605957,0.0,1791183678821,-0.27,8.60295,4.24905,0.046002,8.739624,4.43361,-0.362255,-0.118968,-0.198947,0.048125,-0.08745,0.009075,
36476182616975,-0.1866680383682251,0.047009456902742386,9.63430249703727,0.47068594992160795,0.2725958319467765,0.2736134648323059,-0.07562458515167236,-0.08635000139474869,-0.02024255320429802,0.0,1791183678831,-0.24405001,8.62695,4.28205,0.049091,8.74222,4.42845,-0.28873,-0.119171,-0.174633,0.044825,-0.08635,0.0026125,
36476192611028,-0.17255695164203644,0.032657398283481597,9.65192750944521,0.3561463490128517,0.27619799819774404,0.23135242760181426,-0.059177760034799576,-0.06407500058412552,-0.014551577158272266,0.0,1791183678841,-0.29700002,8.62005,4.3320003,0.050779,8.744167,4.424587,-0.297601,-0.130695,-0.120492,0.032175,-0.064075,-0.0048125,
36476202605212,-0.1610424816608429,0.012480155378580094,9.634452142526744,0.2444314032793045,0.27486805836419664,0.19368988573551177,-0.02416866645216942,-0.022549999877810478,-0.004451979883015156,0.0,1791183678851,-0.34905002,8.59095,4.347,0.04971,8.745042,4.422872,-0.387512,-0.136358,-0.082864,0.0097624995,-0.02255,-0.009075,
36476212599132,-0.19516795873641968,-0.014446253329515458,9.615837629868189,0.15874318778514862,0.2674120870135295,0.18264735043048858,0.008079146966338158,0.011549999937415123,0.005190469790250063,0.0,1791183678861,-0.43800002,8.544001,4.3900504,0.046619,8.744761,4.42346,-0.434698,-0.191143,-0.049934,-0.01155,0.01155,-0.0048125,
36476222593272,-0.17683124542236328,-0.04339506700634956,9.666321606118315,0.06058153212070465,0.25161919632995866,0.17845333516597747,0.032658353447914124,0.03382499888539314,0.013377092778682709,0.0,1791183678870,-0.42600003,8.57205,4.44705,0.042433,8.743381,4.426232,-0.492762,-0.192157,-0.007215,-0.0295625,0.033825,0.005775,
36476232587349,-0.06804326176643372,-0.06896327510476112,9.811632639378622,0.053137630224227905,0.22548667751077683,0.1547283798456192,0.04554047808051109,0.043449997901916504,0.0202027577906847,0.0,1791183678881,-0.37095,8.674951,4.5690002,0.039023,8.741151,4.430664,-0.448651,-0.115707,0.081725,-0.04455,0.043449998,0.0154,
36476242581490,0.02386806160211563,-0.08939733244478702,9.867425846504933,0.1549589157104492,0.19565744384900138,0.1154433771967888,0.049334581941366196,0.047712501138448715,0.02215336263179779,0.0,1791183678891,-0.37800002,8.674951,4.6870503,0.036192,8.738317,4.436273,-0.390753,-0.067384,0.188643,-0.0488125,0.0477125,0.0154,
36476252575431,0.07178103923797607,-0.10204423256218434,9.923088360044604,0.23070767074823378,0.17563085168569886,0.068878673017025,0.03945301100611687,0.036024998873472214,0.018318580463528633,0.0,1791183678902,-0.423,8.6629505,4.821,0.033417,8.735246,4.442339,-0.445438,-0.071495,0.302288,-0.0402875,0.036025,0.0165,
36476262569584,0.12645263969898224,-0.10901168249547481,9.975306291697088,0.29681442826986315,0.16322580218527508,0.004554553329944611,0.03958963230252266,0.0317624993622303,0.010127691552042961,0.0,1791183678911,-0.342,8.685,4.8949504,0.031363,8.732397,4.447952,-0.426625,-0.068646,0.416385,-0.0221375,0.0317625,0.025024999,
36476272563723,0.15907105803489685,-0.11027514301240444,9.984742378813214,0.33623937219381334,0.16103327482582935,0.06262590736150742,0.0348607562482357,0.02419999986886978,4.6813389053568244E-4,0.0,1791183678920,-0.25800002,8.71605,4.8640504,0.031237,8.730359,4.451949,-0.316366,-0.035484,0.421965,-8.25E-4,0.0242,0.0292875,
36476282557812,0.18434366583824158,-0.10827758871018886,9.973909209851296,0.34445572048425677,0.16439268551976774,0.11310329288244247,0.04480239748954773,0.03698749840259552,-0.006290674675256014,0.0,1791183678931,-0.20805001,8.77095,4.74405,0.031427,8.729388,4.453856,-0.249519,0.027735,0.35302,0.014025,0.0369875,0.0259875,
36476292551966,0.11392271518707275,-0.10588689781725406,9.898800829631629,0.32480410933494563,0.16723443448169853,0.1311142235994339,0.04665524512529373,0.045512501150369644,-0.0077701834961771965,0.0,1791183678941,-0.24195,8.74905,4.62405,0.030476,8.729283,4.454067,-0.243779,0.013475,0.225916,0.0171875,0.0455125,0.0133375,
36476302545894,0.04576437175273895,-0.10176499038934708,9.795882189951325,0.30855824053287506,0.16988451526748619,0.12591089010238649,0.05169873312115669,0.05829999968409538,-0.0030012258794158697,0.0,1791183678951,-0.30105,8.685,4.5210004,0.027312,8.72928,4.45409,-0.30047,-0.012856,0.12773,0.0066,0.0583,-5.5E-4,
36476312540055,-0.054232001304626465,-0.09925357140600681,9.708827762631953,0.2682272970676422,0.17019708369536118,0.08977396190166473,0.06493931263685226,0.07644999772310257,0.005673043429851532,0.0,1791183678961,-0.41895002,8.5990505,4.4880004,0.021901,8.728702,4.455257,-0.38125,-0.079316,0.037978,-0.0125124995,0.07645,-0.006875,
